Event Index,UTC Timestamp,UTC Date,Local Timestamp,Local Timezone,Local Date,Experiment ID,Experiment Version,Tree Node Key,Repeat Key,Schedule ID,Participant Public ID,Participant Private ID,Participant Starting Group,Participant Status,Participant Completion Code,Participant External Session ID,Participant Device Type,Participant Device,Participant OS,Participant Browser,Participant Monitor Size,Participant Viewport Size,Checkpoint,Task Name,Task Version,randomiser-oh6h,trial_type,trial_index_global,time_elapsed,Reactiontime,responses,key_press,correct,current_trial_difficuly,Task_type,Trial_real_experiment,label,confidence_rating,numDots,quadraticscore,earnings,difficulty_staircase_use,numDots_average,NumDots_use,reversals_staircase
1,1.60484E+12,08/11/2020 13:13,1.60484E+12,-5,08/11/2020 08:13,12022,43,task-yzt9,,7648753,BLIND,2267207,,live,,,computer,Desktop or Laptop,Windows 10,Chrome 86.0.4240.111,1368x912,1351x912,,Meta-Task,29,Menta-first,doublestim,9,79329,5932,,87,1,,practice,,responsePerceptual_practice,,4.4,,0,1,,5,0
2,1.60484E+12,08/11/2020 13:13,1.60484E+12,-5,08/11/2020 08:13,12022,43,task-yzt9,,7648753,BLIND,2267207,,live,,,computer,Desktop or Laptop,Windows 10,Chrome 86.0.4240.111,1368x912,1351x912,,Meta-Task,29,Menta-first,doublestim,17,85607,1801,,87,1,,practice,,responsePerceptual_practice,,4.4,,0,1,,5,0
3,1.60484E+12,08/11/2020 13:13,1.60484E+12,-5,08/11/2020 08:13,12022,43,task-yzt9,,7648753,BLIND,2267207,,live,,,computer,Desktop or Laptop,Windows 10,Chrome 86.0.4240.111,1368x912,1351x912,,Meta-Task,29,Menta-first,doublestim,25,92176,2188,,87,1,,practice,,responsePerceptual_practice,,4,,0,1,,4,0
4,1.60484E+12,08/11/2020 13:13,1.60484E+12,-5,08/11/2020 08:13,12022,43,task-yzt9,,7648753,BLIND,2267207,,live,,,computer,Desktop or Laptop,Windows 10,Chrome 86.0.4240.111,1368x912,1351x912,,Meta-Task,29,Menta-first,doublestim,33,98095,1538,,69,1,,practice,,responsePerceptual_practice,,4,,0,1,,4,0
5,1.60484E+12,08/11/2020 13:13,1.60484E+12,-5,08/11/2020 08:13,12022,43,task-yzt9,,7648753,BLIND,2267207,,live,,,computer,Desktop or Laptop,Windows 10,Chrome 86.0.4240.111,1368x912,1351x912,,Meta-Task,29,Menta-first,doublestim,41,103169,704,,87,1,,practice,,responsePerceptual_practice,,3.6,,0,1,,3.6,0
6,1.60484E+12,08/11/2020 13:13,1.60484E+12,-5,08/11/2020 08:13,12022,43,task-yzt9,,7648753,BLIND,2267207,,live,,,computer,Desktop or Laptop,Windows 10,Chrome 86.0.4240.111,1368x912,1351x912,,Meta-Task,29,Menta-first,doublestim,49,108933,1365,,87,1,,practice,,responsePerceptual_practice,,3.6,,0,1,,3.6,0
7,1.60484E+12,08/11/2020 13:13,1.60484E+12,-5,08/11/2020 08:13,12022,43,task-yzt9,,7648753,BLIND,2267207,,live,,,computer,Desktop or Laptop,Windows 10,Chrome 86.0.4240.111,1368x912,1351x912,,Meta-Task,29,Menta-first,doublestim,57,114047,695,,87,1,,practice,,responsePerceptual_practice,,3.4,,0,1,,3.4,0
8,1.60484E+12,08/11/2020 13:14,1.60484E+12,-5,08/11/2020 08:13,12022,43,task-yzt9,,7648753,BLIND,2267207,,live,,,computer,Desktop or Laptop,Windows 10,Chrome 86.0.4240.111,1368x912,1351x912,,Meta-Task,29,Menta-first,doublestim,65,119845,1384,,87,1,,practice,,responsePerceptual_practice,,3.4,,0,1,,3.4,0
9,1.60484E+12,08/11/2020 13:14,1.60484E+12,-5,08/11/2020 08:14,12022,43,task-yzt9,,7648753,BLIND,2267207,,live,,,computer,Desktop or Laptop,Windows 10,Chrome 86.0.4240.111,1368x912,1351x912,,Meta-Task,29,Menta-first,doublestim,73,124676,561,,69,1,,practice,,responsePerceptual_practice,,3.2,,0,1,,3.2,0
10,1.60484E+12,08/11/2020 13:14,1.60484E+12,-5,08/11/2020 08:14,12022,43,task-yzt9,,7648753,BLIND,2267207,,live,,,computer,Desktop or Laptop,Windows 10,Chrome 86.0.4240.111,1368x912,1351x912,,Meta-Task,29,Menta-first,doublestim,81,129623,534,,69,1,,practice,,responsePerceptual_practice,,3.2,,0,1,,3.2,0
11,1.60484E+12,08/11/2020 13:14,1.60484E+12,-5,08/11/2020 08:14,12022,43,task-yzt9,,7648753,BLIND,2267207,,live,,,computer,Desktop or Laptop,Windows 10,Chrome 86.0.4240.111,1368x912,1351x912,,Meta-Task,29,Menta-first,doublestim,89,134487,476,,69,1,,practice,,responsePerceptual_practice,,3,,0,1,,3,0
12,1.60484E+12,08/11/2020 13:14,1.60484E+12,-5,08/11/2020 08:14,12022,43,task-yzt9,,7648753,BLIND,2267207,,live,,,computer,Desktop or Laptop,Windows 10,Chrome 86.0.4240.111,1368x912,1351x912,,Meta-Task,29,Menta-first,doublestim,97,139358,441,,69,1,,practice,,responsePerceptual_practice,,3,,0,1,,3,0
13,1.60484E+12,08/11/2020 13:14,1.60484E+12,-5,08/11/2020 08:14,12022,43,task-yzt9,,7648753,BLIND,2267207,,live,,,computer,Desktop or Laptop,Windows 10,Chrome 86.0.4240.111,1368x912,1351x912,,Meta-Task,29,Menta-first,doublestim,105,144081,363,,69,1,,practice,,responsePerceptual_practice,,2.9,,0,1,,2.9,0
14,1.60484E+12,08/11/2020 13:14,1.60484E+12,-5,08/11/2020 08:14,12022,43,task-yzt9,,7648753,BLIND,2267207,,live,,,computer,Desktop or Laptop,Windows 10,Chrome 86.0.4240.111,1368x912,1351x912,,Meta-Task,29,Menta-first,doublestim,113,148846,462,,69,,,practice,,responsePerceptual_practice,,2.9,,0,1,,2.9,0
15,1.60484E+12,08/11/2020 13:14,1.60484E+12,-5,08/11/2020 08:14,12022,43,task-yzt9,,7648753,BLIND,2267207,,live,,,computer,Desktop or Laptop,Windows 10,Chrome 86.0.4240.111,1368x912,1351x912,,Meta-Task,29,Menta-first,doublestim,121,153655,466,,87,1,,practice,,responsePerceptual_practice,,3,,0,1,,3,1
16,1.60484E+12,08/11/2020 13:14,1.60484E+12,-5,08/11/2020 08:14,12022,43,task-yzt9,,7648753,BLIND,2267207,,live,,,computer,Desktop or Laptop,Windows 10,Chrome 86.0.4240.111,1368x912,1351x912,,Meta-Task,29,Menta-first,doublestim,129,158425,383,,69,1,,practice,,responsePerceptual_practice,,3,,0,1,,3,1
17,1.60484E+12,08/11/2020 13:14,1.60484E+12,-5,08/11/2020 08:14,12022,43,task-yzt9,,7648753,BLIND,2267207,,live,,,computer,Desktop or Laptop,Windows 10,Chrome 86.0.4240.111,1368x912,1351x912,,Meta-Task,29,Menta-first,doublestim,137,163366,614,,69,1,,practice,,responsePerceptual_practice,,2.9,,0,1,,2.9,2
18,1.60484E+12,08/11/2020 13:14,1.60484E+12,-5,08/11/2020 08:14,12022,43,task-yzt9,,7648753,BLIND,2267207,,live,,,computer,Desktop or Laptop,Windows 10,Chrome 86.0.4240.111,1368x912,1351x912,,Meta-Task,29,Menta-first,doublestim,145,168068,358,,69,1,,practice,,responsePerceptual_practice,,2.9,,0,1,,2.9,2
19,1.60484E+12,08/11/2020 13:14,1.60484E+12,-5,08/11/2020 08:14,12022,43,task-yzt9,,7648753,BLIND,2267207,,live,,,computer,Desktop or Laptop,Windows 10,Chrome 86.0.4240.111,1368x912,1351x912,,Meta-Task,29,Menta-first,doublestim,153,172926,503,,69,1,,practice,,responsePerceptual_practice,,2.8,,0,1,,2.8,2
20,1.60484E+12,08/11/2020 13:14,1.60484E+12,-5,08/11/2020 08:14,12022,43,task-yzt9,,7648753,BLIND,2267207,,live,,,computer,Desktop or Laptop,Windows 10,Chrome 86.0.4240.111,1368x912,1351x912,,Meta-Task,29,Menta-first,doublestim,161,178830,1583,,69,1,,practice,,responsePerceptual_practice,,2.8,,0,1,,2.8,2
21,1.60484E+12,08/11/2020 13:15,1.60484E+12,-5,08/11/2020 08:15,12022,43,task-yzt9,,7648753,BLIND,2267207,,live,,,computer,Desktop or Laptop,Windows 10,Chrome 86.0.4240.111,1368x912,1351x912,,Meta-Task,29,Menta-first,doublestim,169,183707,549,,69,,,practice,,responsePerceptual_practice,,2.7,,0,1,,2.7,2
22,1.60484E+12,08/11/2020 13:15,1.60484E+12,-5,08/11/2020 08:15,12022,43,task-yzt9,,7648753,BLIND,2267207,,live,,,computer,Desktop or Laptop,Windows 10,Chrome 86.0.4240.111,1368x912,1351x912,,Meta-Task,29,Menta-first,doublestim,177,188566,498,,69,,,practice,,responsePerceptual_practice,,2.8,,0,1,,2.8,3
23,1.60484E+12,08/11/2020 13:15,1.60484E+12,-5,08/11/2020 08:15,12022,43,task-yzt9,,7648753,BLIND,2267207,,live,,,computer,Desktop or Laptop,Windows 10,Chrome 86.0.4240.111,1368x912,1351x912,,Meta-Task,29,Menta-first,doublestim,185,194199,1191,,69,1,,practice,,responsePerceptual_practice,,2.9,,0,1,,2.9,3
24,1.60484E+12,08/11/2020 13:15,1.60484E+12,-5,08/11/2020 08:15,12022,43,task-yzt9,,7648753,BLIND,2267207,,live,,,computer,Desktop or Laptop,Windows 10,Chrome 86.0.4240.111,1368x912,1351x912,,Meta-Task,29,Menta-first,doublestim,193,199238,639,,69,1,,practice,,responsePerceptual_practice,,2.9,,0,1,,2.9,3
25,1.60484E+12,08/11/2020 13:15,1.60484E+12,-5,08/11/2020 08:15,12022,43,task-yzt9,,7648753,BLIND,2267207,,live,,,computer,Desktop or Laptop,Windows 10,Chrome 86.0.4240.111,1368x912,1351x912,,Meta-Task,29,Menta-first,doublestim,201,204076,487,,87,1,,practice,,responsePerceptual_practice,,2.8,,0,1,,2.8,4
26,1.60484E+12,08/11/2020 13:15,1.60484E+12,-5,08/11/2020 08:15,12022,43,task-yzt9,,7648753,BLIND,2267207,,live,,,computer,Desktop or Laptop,Windows 10,Chrome 86.0.4240.111,1368x912,1351x912,,Meta-Task,29,Menta-first,doublestim,209,209168,644,,87,1,,practice,,responsePerceptual_practice,,2.8,,0,1,,2.8,4
27,1.60484E+12,08/11/2020 13:15,1.60484E+12,-5,08/11/2020 08:15,12022,43,task-yzt9,,7648753,BLIND,2267207,,live,,,computer,Desktop or Laptop,Windows 10,Chrome 86.0.4240.111,1368x912,1351x912,,Meta-Task,29,Menta-first,,,,,,,,,,,,,,,,,,,
28,1.60484E+12,08/11/2020 13:16,1.60484E+12,-5,08/11/2020 08:16,12022,43,task-yzt9,,7648753,BLIND,2267207,,live,,,computer,Desktop or Laptop,Windows 10,Chrome 86.0.4240.111,1368x912,1351x912,,Meta-Task,29,Menta-first,survey-likert,213,251018,11544,"{""Q0"":6,""Q1"":1}",,,,practice,,confidprac,,2.8,,0,1,,,4
29,1.60484E+12,08/11/2020 13:16,1.60484E+12,-5,08/11/2020 08:16,12022,43,task-yzt9,,7648753,BLIND,2267207,,live,,,computer,Desktop or Laptop,Windows 10,Chrome 86.0.4240.111,1368x912,1351x912,,Meta-Task,29,Menta-first,survey-likert,215,273643,14204,"{""Q0"":6,""Q1"":1}",,,,practice,,confidprac,,2.8,,0,1,,,4
30,1.60484E+12,08/11/2020 13:16,1.60484E+12,-5,08/11/2020 08:16,12022,43,task-yzt9,,7648753,BLIND,2267207,,live,,,computer,Desktop or Laptop,Windows 10,Chrome 86.0.4240.111,1368x912,1351x912,,Meta-Task,29,Menta-first,doublestim,223,296860,947,,87,1,,simpleperceptual,1,responsePerceptual,,2.7,,0,1,,,4
31,1.60484E+12,08/11/2020 13:17,1.60484E+12,-5,08/11/2020 08:17,12022,43,task-yzt9,,7648753,BLIND,2267207,,live,,,computer,Desktop or Laptop,Windows 10,Chrome 86.0.4240.111,1368x912,1351x912,,Meta-Task,29,Menta-first,survey-likert,225,302645,5144,"{""Q0"":2}",,1,,simpleperceptual,1,confidencerating,0.333333333,2.7,0.555555556,0.555555556,1,,,4
32,1.60484E+12,08/11/2020 13:17,1.60484E+12,-5,08/11/2020 08:17,12022,43,task-yzt9,,7648753,BLIND,2267207,,live,,,computer,Desktop or Laptop,Windows 10,Chrome 86.0.4240.111,1368x912,1351x912,,Meta-Task,29,Menta-first,doublestim,232,307419,515,,69,,,simpleperceptual,2,responsePerceptual,,2.7,,0.555555556,1,,,4
33,1.60484E+12,08/11/2020 13:17,1.60484E+12,-5,08/11/2020 08:17,12022,43,task-yzt9,,7648753,BLIND,2267207,,live,,,computer,Desktop or Laptop,Windows 10,Chrome 86.0.4240.111,1368x912,1351x912,,Meta-Task,29,Menta-first,survey-likert,234,311449,3421,"{""Q0"":5}",,,,simpleperceptual,2,confidencerating,0.833333333,2.7,0.305555556,0.861111111,1,,,4
34,1.60484E+12,08/11/2020 13:17,1.60484E+12,-5,08/11/2020 08:17,12022,43,task-yzt9,,7648753,BLIND,2267207,,live,,,computer,Desktop or Laptop,Windows 10,Chrome 86.0.4240.111,1368x912,1351x912,,Meta-Task,29,Menta-first,doublestim,241,316281,567,,69,1,,simpleperceptual,3,responsePerceptual,,2.8,,0.861111111,1,,,5
35,1.60484E+12,08/11/2020 13:17,1.60484E+12,-5,08/11/2020 08:17,12022,43,task-yzt9,,7648753,BLIND,2267207,,live,,,computer,Desktop or Laptop,Windows 10,Chrome 86.0.4240.111,1368x912,1351x912,,Meta-Task,29,Menta-first,survey-likert,243,322504,5640,"{""Q0"":6}",,1,,simpleperceptual,3,confidencerating,1,2.8,1,1.861111111,1,,,5
36,1.60484E+12,08/11/2020 13:17,1.60484E+12,-5,08/11/2020 08:17,12022,43,task-yzt9,,7648753,BLIND,2267207,,live,,,computer,Desktop or Laptop,Windows 10,Chrome 86.0.4240.111,1368x912,1351x912,,Meta-Task,29,Menta-first,doublestim,250,327589,816,,69,1,,simpleperceptual,4,responsePerceptual,,2.8,,1.861111111,1,,,5
37,1.60484E+12,08/11/2020 13:17,1.60484E+12,-5,08/11/2020 08:17,12022,43,task-yzt9,,7648753,BLIND,2267207,,live,,,computer,Desktop or Laptop,Windows 10,Chrome 86.0.4240.111,1368x912,1351x912,,Meta-Task,29,Menta-first,survey-likert,252,331406,3229,"{""Q0"":6}",,1,,simpleperceptual,5,confidencerating,1,2.8,1,2.861111111,1,,,5
38,1.60484E+12,08/11/2020 13:17,1.60484E+12,-5,08/11/2020 08:17,12022,43,task-yzt9,,7648753,BLIND,2267207,,live,,,computer,Desktop or Laptop,Windows 10,Chrome 86.0.4240.111,1368x912,1351x912,,Meta-Task,29,Menta-first,doublestim,259,336506,824,,69,1,,simpleperceptual,5,responsePerceptual,,2.7,,2.861111111,1,,,6
39,1.60484E+12,08/11/2020 13:17,1.60484E+12,-5,08/11/2020 08:17,12022,43,task-yzt9,,7648753,BLIND,2267207,,live,,,computer,Desktop or Laptop,Windows 10,Chrome 86.0.4240.111,1368x912,1351x912,,Meta-Task,29,Menta-first,survey-likert,261,340582,3467,"{""Q0"":6}",,1,,simpleperceptual,5,confidencerating,1,2.7,1,3.861111111,1,,,6
40,1.60484E+12,08/11/2020 13:17,1.60484E+12,-5,08/11/2020 08:17,12022,43,task-yzt9,,7648753,BLIND,2267207,,live,,,computer,Desktop or Laptop,Windows 10,Chrome 86.0.4240.111,1368x912,1351x912,,Meta-Task,29,Menta-first,doublestim,268,347661,2796,,87,1,,simpleperceptual,6,responsePerceptual,,2.7,,3.861111111,1,,,6
41,1.60484E+12,08/11/2020 13:17,1.60484E+12,-5,08/11/2020 08:17,12022,43,task-yzt9,,7648753,BLIND,2267207,,live,,,computer,Desktop or Laptop,Windows 10,Chrome 86.0.4240.111,1368x912,1351x912,,Meta-Task,29,Menta-first,survey-likert,270,351208,2958,"{""Q0"":2}",,1,,simpleperceptual,7,confidencerating,0.333333333,2.7,0.555555556,4.416666667,1,,,6
42,1.60484E+12,08/11/2020 13:17,1.60484E+12,-5,08/11/2020 08:17,12022,43,task-yzt9,,7648753,BLIND,2267207,,live,,,computer,Desktop or Laptop,Windows 10,Chrome 86.0.4240.111,1368x912,1351x912,,Meta-Task,29,Menta-first,doublestim,277,356711,1180,,69,1,,simpleperceptual,7,responsePerceptual,,2.6,,4.416666667,1,,,6
43,1.60484E+12,08/11/2020 13:17,1.60484E+12,-5,08/11/2020 08:17,12022,43,task-yzt9,,7648753,BLIND,2267207,,live,,,computer,Desktop or Laptop,Windows 10,Chrome 86.0.4240.111,1368x912,1351x912,,Meta-Task,29,Menta-first,survey-likert,279,359823,2531,"{""Q0"":5}",,1,,simpleperceptual,7,confidencerating,0.833333333,2.6,0.972222222,5.388888889,1,,,6
44,1.60484E+12,08/11/2020 13:18,1.60484E+12,-5,08/11/2020 08:18,12022,43,task-yzt9,,7648753,BLIND,2267207,,live,,,computer,Desktop or Laptop,Windows 10,Chrome 86.0.4240.111,1368x912,1351x912,,Meta-Task,29,Menta-first,doublestim,286,366512,2316,,69,,,simpleperceptual,8,responsePerceptual,,2.6,,5.388888889,1,,,6
45,1.60484E+12,08/11/2020 13:18,1.60484E+12,-5,08/11/2020 08:18,12022,43,task-yzt9,,7648753,BLIND,2267207,,live,,,computer,Desktop or Laptop,Windows 10,Chrome 86.0.4240.111,1368x912,1351x912,,Meta-Task,29,Menta-first,survey-likert,288,369879,2795,"{""Q0"":4}",,,,simpleperceptual,8,confidencerating,0.666666667,2.6,0.555555556,5.944444444,1,,,6
46,1.60484E+12,08/11/2020 13:18,1.60484E+12,-5,08/11/2020 08:18,12022,43,task-yzt9,,7648753,BLIND,2267207,,live,,,computer,Desktop or Laptop,Windows 10,Chrome 86.0.4240.111,1368x912,1351x912,,Meta-Task,29,Menta-first,doublestim,295,375020,753,,69,1,,simpleperceptual,9,responsePerceptual,,2.7,,5.944444444,1,,,7
47,1.60484E+12,08/11/2020 13:18,1.60484E+12,-5,08/11/2020 08:18,12022,43,task-yzt9,,7648753,BLIND,2267207,,live,,,computer,Desktop or Laptop,Windows 10,Chrome 86.0.4240.111,1368x912,1351x912,,Meta-Task,29,Menta-first,survey-likert,297,377508,1895,"{""Q0"":5}",,1,,simpleperceptual,9,confidencerating,0.833333333,2.7,0.972222222,6.916666667,1,,,7
48,1.60484E+12,08/11/2020 13:18,1.60484E+12,-5,08/11/2020 08:18,12022,43,task-yzt9,,7648753,BLIND,2267207,,live,,,computer,Desktop or Laptop,Windows 10,Chrome 86.0.4240.111,1368x912,1351x912,,Meta-Task,29,Menta-first,doublestim,304,383848,1991,,69,1,,simpleperceptual,10,responsePerceptual,,2.7,,6.916666667,1,,,7
49,1.60484E+12,08/11/2020 13:18,1.60484E+12,-5,08/11/2020 08:18,12022,43,task-yzt9,,7648753,BLIND,2267207,,live,,,computer,Desktop or Laptop,Windows 10,Chrome 86.0.4240.111,1368x912,1351x912,,Meta-Task,29,Menta-first,survey-likert,306,386777,2340,"{""Q0"":4}",,1,,simpleperceptual,10,confidencerating,0.666666667,2.7,0.888888889,7.805555556,1,,,7
50,1.60484E+12,08/11/2020 13:18,1.60484E+12,-5,08/11/2020 08:18,12022,43,task-yzt9,,7648753,BLIND,2267207,,live,,,computer,Desktop or Laptop,Windows 10,Chrome 86.0.4240.111,1368x912,1351x912,,Meta-Task,29,Menta-first,doublestim,313,392143,1021,,87,1,,simpleperceptual,11,responsePerceptual,,2.6,,7.805555556,1,,,8
51,1.60484E+12,08/11/2020 13:18,1.60484E+12,-5,08/11/2020 08:18,12022,43,task-yzt9,,7648753,BLIND,2267207,,live,,,computer,Desktop or Laptop,Windows 10,Chrome 86.0.4240.111,1368x912,1351x912,,Meta-Task,29,Menta-first,survey-likert,315,395105,2367,"{""Q0"":3}",,1,,simpleperceptual,12,confidencerating,0.5,2.6,0.75,8.555555556,1,,,8
52,1.60484E+12,08/11/2020 13:18,1.60484E+12,-5,08/11/2020 08:18,12022,43,task-yzt9,,7648753,BLIND,2267207,,live,,,computer,Desktop or Laptop,Windows 10,Chrome 86.0.4240.111,1368x912,1351x912,,Meta-Task,29,Menta-first,doublestim,322,400480,1109,,69,1,,simpleperceptual,12,responsePerceptual,,2.6,,8.555555556,1,,,8
53,1.60484E+12,08/11/2020 13:18,1.60484E+12,-5,08/11/2020 08:18,12022,43,task-yzt9,,7648753,BLIND,2267207,,live,,,computer,Desktop or Laptop,Windows 10,Chrome 86.0.4240.111,1368x912,1351x912,,Meta-Task,29,Menta-first,survey-likert,324,403852,2780,"{""Q0"":4}",,1,,simpleperceptual,12,confidencerating,0.666666667,2.6,0.888888889,9.444444444,1,,,8
54,1.60484E+12,08/11/2020 13:18,1.60484E+12,-5,08/11/2020 08:18,12022,43,task-yzt9,,7648753,BLIND,2267207,,live,,,computer,Desktop or Laptop,Windows 10,Chrome 86.0.4240.111,1368x912,1351x912,,Meta-Task,29,Menta-first,doublestim,331,409209,1021,,87,1,,simpleperceptual,13,responsePerceptual,,2.5,,9.444444444,1,,,8
55,1.60484E+12,08/11/2020 13:18,1.60484E+12,-5,08/11/2020 08:18,12022,43,task-yzt9,,7648753,BLIND,2267207,,live,,,computer,Desktop or Laptop,Windows 10,Chrome 86.0.4240.111,1368x912,1351x912,,Meta-Task,29,Menta-first,survey-likert,333,413172,3383,"{""Q0"":4}",,1,,simpleperceptual,13,confidencerating,0.666666667,2.5,0.888888889,10.33333333,1,,,8
56,1.60484E+12,08/11/2020 13:19,1.60484E+12,-5,08/11/2020 08:18,12022,43,task-yzt9,,7648753,BLIND,2267207,,live,,,computer,Desktop or Laptop,Windows 10,Chrome 86.0.4240.111,1368x912,1351x912,,Meta-Task,29,Menta-first,doublestim,340,419002,1496,,69,,,simpleperceptual,14,responsePerceptual,,2.5,,10.33333333,1,,,8
57,1.60484E+12,08/11/2020 13:19,1.60484E+12,-5,08/11/2020 08:19,12022,43,task-yzt9,,7648753,BLIND,2267207,,live,,,computer,Desktop or Laptop,Windows 10,Chrome 86.0.4240.111,1368x912,1351x912,,Meta-Task,29,Menta-first,survey-likert,342,426564,6954,"{""Q0"":2}",,,,simpleperceptual,14,confidencerating,0.333333333,2.5,0.888888889,11.22222222,1,,,8
58,1.60484E+12,08/11/2020 13:19,1.60484E+12,-5,08/11/2020 08:19,12022,43,task-yzt9,,7648753,BLIND,2267207,,live,,,computer,Desktop or Laptop,Windows 10,Chrome 86.0.4240.111,1368x912,1351x912,,Meta-Task,29,Menta-first,doublestim,349,432000,1183,,69,,,simpleperceptual,15,responsePerceptual,,2.6,,11.22222222,1,,,9
59,1.60484E+12,08/11/2020 13:19,1.60484E+12,-5,08/11/2020 08:19,12022,43,task-yzt9,,7648753,BLIND,2267207,,live,,,computer,Desktop or Laptop,Windows 10,Chrome 86.0.4240.111,1368x912,1351x912,,Meta-Task,29,Menta-first,survey-likert,351,434464,1849,"{""Q0"":2}",,,,simpleperceptual,15,confidencerating,0.333333333,2.6,0.888888889,12.11111111,1,,,9
60,1.60484E+12,08/11/2020 13:19,1.60484E+12,-5,08/11/2020 08:19,12022,43,task-yzt9,,7648753,BLIND,2267207,,live,,,computer,Desktop or Laptop,Windows 10,Chrome 86.0.4240.111,1368x912,1351x912,,Meta-Task,29,Menta-first,doublestim,358,439852,1150,,69,1,,simpleperceptual,16,responsePerceptual,,2.7,,12.11111111,1,,,9
61,1.60484E+12,08/11/2020 13:19,1.60484E+12,-5,08/11/2020 08:19,12022,43,task-yzt9,,7648753,BLIND,2267207,,live,,,computer,Desktop or Laptop,Windows 10,Chrome 86.0.4240.111,1368x912,1351x912,,Meta-Task,29,Menta-first,survey-likert,360,442773,2329,"{""Q0"":3}",,1,,simpleperceptual,16,confidencerating,0.5,2.7,0.75,12.86111111,1,,,9
62,1.60484E+12,08/11/2020 13:19,1.60484E+12,-5,08/11/2020 08:19,12022,43,task-yzt9,,7648753,BLIND,2267207,,live,,,computer,Desktop or Laptop,Windows 10,Chrome 86.0.4240.111,1368x912,1351x912,,Meta-Task,29,Menta-first,doublestim,367,450181,3104,,69,,,simpleperceptual,17,responsePerceptual,,2.7,,12.86111111,1,,,9
63,1.60484E+12,08/11/2020 13:19,1.60484E+12,-5,08/11/2020 08:19,12022,43,task-yzt9,,7648753,BLIND,2267207,,live,,,computer,Desktop or Laptop,Windows 10,Chrome 86.0.4240.111,1368x912,1351x912,,Meta-Task,29,Menta-first,survey-likert,369,454331,3573,"{""Q0"":3}",,,,simpleperceptual,17,confidencerating,0.5,2.7,0.75,13.61111111,1,,,9
64,1.60484E+12,08/11/2020 13:19,1.60484E+12,-5,08/11/2020 08:19,12022,43,task-yzt9,,7648753,BLIND,2267207,,live,,,computer,Desktop or Laptop,Windows 10,Chrome 86.0.4240.111,1368x912,1351x912,,Meta-Task,29,Menta-first,doublestim,376,459438,748,,69,1,,simpleperceptual,18,responsePerceptual,,2.8,,13.61111111,1,,,9
65,1.60484E+12,08/11/2020 13:19,1.60484E+12,-5,08/11/2020 08:19,12022,43,task-yzt9,,7648753,BLIND,2267207,,live,,,computer,Desktop or Laptop,Windows 10,Chrome 86.0.4240.111,1368x912,1351x912,,Meta-Task,29,Menta-first,survey-likert,378,462264,2270,"{""Q0"":4}",,1,,simpleperceptual,19,confidencerating,0.666666667,2.8,0.888888889,14.5,1,,,9
66,1.60484E+12,08/11/2020 13:19,1.60484E+12,-5,08/11/2020 08:19,12022,43,task-yzt9,,7648753,BLIND,2267207,,live,,,computer,Desktop or Laptop,Windows 10,Chrome 86.0.4240.111,1368x912,1351x912,,Meta-Task,29,Menta-first,doublestim,385,469641,3043,,69,,,simpleperceptual,19,responsePerceptual,,2.8,,14.5,1,,,9
67,1.60484E+12,08/11/2020 13:19,1.60484E+12,-5,08/11/2020 08:19,12022,43,task-yzt9,,7648753,BLIND,2267207,,live,,,computer,Desktop or Laptop,Windows 10,Chrome 86.0.4240.111,1368x912,1351x912,,Meta-Task,29,Menta-first,survey-likert,387,473312,3067,"{""Q0"":2}",,,,simpleperceptual,20,confidencerating,0.333333333,2.9,0.888888889,15.38888889,1,,,9
68,1.60484E+12,08/11/2020 13:20,1.60484E+12,-5,08/11/2020 08:19,12022,43,task-yzt9,,7648753,BLIND,2267207,,live,,,computer,Desktop or Laptop,Windows 10,Chrome 86.0.4240.111,1368x912,1351x912,,Meta-Task,29,Menta-first,doublestim,394,480221,2703,,69,1,,simpleperceptual,20,responsePerceptual,,2.9,,15.38888889,1,,,9
69,1.60484E+12,08/11/2020 13:20,1.60484E+12,-5,08/11/2020 08:20,12022,43,task-yzt9,,7648753,BLIND,2267207,,live,,,computer,Desktop or Laptop,Windows 10,Chrome 86.0.4240.111,1368x912,1351x912,,Meta-Task,29,Menta-first,survey-likert,396,482519,1722,"{""Q0"":1}",,1,,simpleperceptual,21,confidencerating,0.166666667,2.9,0.305555556,15.69444444,1,,,9
70,1.60484E+12,08/11/2020 13:20,1.60484E+12,-5,08/11/2020 08:20,12022,43,task-yzt9,,7648753,BLIND,2267207,,live,,,computer,Desktop or Laptop,Windows 10,Chrome 86.0.4240.111,1368x912,1351x912,,Meta-Task,29,Menta-first,doublestim,403,488224,1425,,87,1,,simpleperceptual,21,responsePerceptual,,2.9,,15.69444444,1,,,9
71,1.60484E+12,08/11/2020 13:20,1.60484E+12,-5,08/11/2020 08:20,12022,43,task-yzt9,,7648753,BLIND,2267207,,live,,,computer,Desktop or Laptop,Windows 10,Chrome 86.0.4240.111,1368x912,1351x912,,Meta-Task,29,Menta-first,survey-likert,405,493374,4579,"{""Q0"":2}",,1,,simpleperceptual,21,confidencerating,0.333333333,2.9,0.555555556,16.25,1,,,9
72,1.60484E+12,08/11/2020 13:20,1.60484E+12,-5,08/11/2020 08:20,12022,43,task-yzt9,,7648753,BLIND,2267207,,live,,,computer,Desktop or Laptop,Windows 10,Chrome 86.0.4240.111,1368x912,1351x912,,Meta-Task,29,Menta-first,doublestim,412,498974,1333,,69,1,,simpleperceptual,22,responsePerceptual,,2.8,,16.25,1,,,10
73,1.60484E+12,08/11/2020 13:20,1.60484E+12,-5,08/11/2020 08:20,12022,43,task-yzt9,,7648753,BLIND,2267207,,live,,,computer,Desktop or Laptop,Windows 10,Chrome 86.0.4240.111,1368x912,1351x912,,Meta-Task,29,Menta-first,survey-likert,414,501423,1862,"{""Q0"":4}",,1,,simpleperceptual,22,confidencerating,0.666666667,2.8,0.888888889,17.13888889,1,,,10
74,1.60484E+12,08/11/2020 13:20,1.60484E+12,-5,08/11/2020 08:20,12022,43,task-yzt9,,7648753,BLIND,2267207,,live,,,computer,Desktop or Laptop,Windows 10,Chrome 86.0.4240.111,1368x912,1351x912,,Meta-Task,29,Menta-first,doublestim,421,506704,973,,69,1,,simpleperceptual,23,responsePerceptual,,2.8,,17.13888889,1,,,10
75,1.60484E+12,08/11/2020 13:20,1.60484E+12,-5,08/11/2020 08:20,12022,43,task-yzt9,,7648753,BLIND,2267207,,live,,,computer,Desktop or Laptop,Windows 10,Chrome 86.0.4240.111,1368x912,1351x912,,Meta-Task,29,Menta-first,survey-likert,423,509310,1986,"{""Q0"":5}",,1,,simpleperceptual,23,confidencerating,0.833333333,2.8,0.972222222,18.11111111,1,,,10
76,1.60484E+12,08/11/2020 13:20,1.60484E+12,-5,08/11/2020 08:20,12022,43,task-yzt9,,7648753,BLIND,2267207,,live,,,computer,Desktop or Laptop,Windows 10,Chrome 86.0.4240.111,1368x912,1351x912,,Meta-Task,29,Menta-first,doublestim,430,514271,708,,69,1,,simpleperceptual,24,responsePerceptual,,2.7,,18.11111111,1,,,10
77,1.60484E+12,08/11/2020 13:20,1.60484E+12,-5,08/11/2020 08:20,12022,43,task-yzt9,,7648753,BLIND,2267207,,live,,,computer,Desktop or Laptop,Windows 10,Chrome 86.0.4240.111,1368x912,1351x912,,Meta-Task,29,Menta-first,survey-likert,432,516684,1830,"{""Q0"":5}",,1,,simpleperceptual,24,confidencerating,0.833333333,2.7,0.972222222,19.08333333,1,,,10
78,1.60484E+12,08/11/2020 13:20,1.60484E+12,-5,08/11/2020 08:20,12022,43,task-yzt9,,7648753,BLIND,2267207,,live,,,computer,Desktop or Laptop,Windows 10,Chrome 86.0.4240.111,1368x912,1351x912,,Meta-Task,29,Menta-first,doublestim,439,522235,1346,,87,,,simpleperceptual,25,responsePerceptual,,2.7,,19.08333333,1,,,10
79,1.60484E+12,08/11/2020 13:20,1.60484E+12,-5,08/11/2020 08:20,12022,43,task-yzt9,,7648753,BLIND,2267207,,live,,,computer,Desktop or Laptop,Windows 10,Chrome 86.0.4240.111,1368x912,1351x912,,Meta-Task,29,Menta-first,survey-likert,441,525590,2738,"{""Q0"":4}",,,,simpleperceptual,25,confidencerating,0.666666667,2.7,0.555555556,19.63888889,1,,,10
80,1.60484E+12,08/11/2020 13:20,1.60484E+12,-5,08/11/2020 08:20,12022,43,task-yzt9,,7648753,BLIND,2267207,,live,,,computer,Desktop or Laptop,Windows 10,Chrome 86.0.4240.111,1368x912,1351x912,,Meta-Task,29,Menta-first,doublestim,448,530383,535,,69,1,,simpleperceptual,26,responsePerceptual,,2.8,,19.63888889,1,,,11
81,1.60484E+12,08/11/2020 13:20,1.60484E+12,-5,08/11/2020 08:20,12022,43,task-yzt9,,7648753,BLIND,2267207,,live,,,computer,Desktop or Laptop,Windows 10,Chrome 86.0.4240.111,1368x912,1351x912,,Meta-Task,29,Menta-first,survey-likert,450,532912,1953,"{""Q0"":5}",,1,,simpleperceptual,26,confidencerating,0.833333333,2.8,0.972222222,20.61111111,1,,,11
82,1.60484E+12,08/11/2020 13:20,1.60484E+12,-5,08/11/2020 08:20,12022,43,task-yzt9,,7648753,BLIND,2267207,,live,,,computer,Desktop or Laptop,Windows 10,Chrome 86.0.4240.111,1368x912,1351x912,,Meta-Task,29,Menta-first,doublestim,457,538302,1067,,69,1,,simpleperceptual,27,responsePerceptual,,2.8,,20.61111111,1,,,11
83,1.60484E+12,08/11/2020 13:21,1.60484E+12,-5,08/11/2020 08:21,12022,43,task-yzt9,,7648753,BLIND,2267207,,live,,,computer,Desktop or Laptop,Windows 10,Chrome 86.0.4240.111,1368x912,1351x912,,Meta-Task,29,Menta-first,survey-likert,459,579307,40422,"{""Q0"":4}",,1,,simpleperceptual,27,confidencerating,0.666666667,2.8,0.888888889,21.5,1,,,11
84,1.60484E+12,08/11/2020 13:21,1.60484E+12,-5,08/11/2020 08:21,12022,43,task-yzt9,,7648753,BLIND,2267207,,live,,,computer,Desktop or Laptop,Windows 10,Chrome 86.0.4240.111,1368x912,1351x912,,Meta-Task,29,Menta-first,doublestim,466,587512,3918,,69,1,,simpleperceptual,28,responsePerceptual,,2.7,,21.5,1,,,12
85,1.60484E+12,08/11/2020 13:21,1.60484E+12,-5,08/11/2020 08:21,12022,43,task-yzt9,,7648753,BLIND,2267207,,live,,,computer,Desktop or Laptop,Windows 10,Chrome 86.0.4240.111,1368x912,1351x912,,Meta-Task,29,Menta-first,survey-likert,468,590626,2503,"{""Q0"":1}",,1,,simpleperceptual,28,confidencerating,0.166666667,2.7,0.305555556,21.80555556,1,,,12
86,1.60484E+12,08/11/2020 13:21,1.60484E+12,-5,08/11/2020 08:21,12022,43,task-yzt9,,7648753,BLIND,2267207,,live,,,computer,Desktop or Laptop,Windows 10,Chrome 86.0.4240.111,1368x912,1351x912,,Meta-Task,29,Menta-first,doublestim,475,596115,1179,,87,1,,simpleperceptual,29,responsePerceptual,,2.7,,21.80555556,1,,,12
87,1.60484E+12,08/11/2020 13:21,1.60484E+12,-5,08/11/2020 08:21,12022,43,task-yzt9,,7648753,BLIND,2267207,,live,,,computer,Desktop or Laptop,Windows 10,Chrome 86.0.4240.111,1368x912,1351x912,,Meta-Task,29,Menta-first,survey-likert,477,600093,3399,"{""Q0"":2}",,1,,simpleperceptual,29,confidencerating,0.333333333,2.7,0.555555556,22.36111111,1,,,12
88,1.60484E+12,08/11/2020 13:22,1.60484E+12,-5,08/11/2020 08:22,12022,43,task-yzt9,,7648753,BLIND,2267207,,live,,,computer,Desktop or Laptop,Windows 10,Chrome 86.0.4240.111,1368x912,1351x912,,Meta-Task,29,Menta-first,doublestim,484,605883,1424,,87,,,simpleperceptual,30,responsePerceptual,,2.6,,22.36111111,1,,,12
89,1.60484E+12,08/11/2020 13:22,1.60484E+12,-5,08/11/2020 08:22,12022,43,task-yzt9,,7648753,BLIND,2267207,,live,,,computer,Desktop or Laptop,Windows 10,Chrome 86.0.4240.111,1368x912,1351x912,,Meta-Task,29,Menta-first,survey-likert,486,609512,3060,"{""Q0"":4}",,,,simpleperceptual,30,confidencerating,0.666666667,2.6,0.555555556,22.91666667,1,,,12
90,1.60484E+12,08/11/2020 13:22,1.60484E+12,-5,08/11/2020 08:22,12022,43,task-yzt9,,7648753,BLIND,2267207,,live,,,computer,Desktop or Laptop,Windows 10,Chrome 86.0.4240.111,1368x912,1351x912,,Meta-Task,29,Menta-first,doublestim,493,614659,769,,87,1,,simpleperceptual,31,responsePerceptual,,2.7,,22.91666667,1,,,13
91,1.60484E+12,08/11/2020 13:22,1.60484E+12,-5,08/11/2020 08:22,12022,43,task-yzt9,,7648753,BLIND,2267207,,live,,,computer,Desktop or Laptop,Windows 10,Chrome 86.0.4240.111,1368x912,1351x912,,Meta-Task,29,Menta-first,survey-likert,495,619121,3910,"{""Q0"":5}",,1,,simpleperceptual,31,confidencerating,0.833333333,2.7,0.972222222,23.88888889,1,,,13
92,1.60484E+12,08/11/2020 13:22,1.60484E+12,-5,08/11/2020 08:22,12022,43,task-yzt9,,7648753,BLIND,2267207,,live,,,computer,Desktop or Laptop,Windows 10,Chrome 86.0.4240.111,1368x912,1351x912,,Meta-Task,29,Menta-first,doublestim,502,624269,798,,87,,,simpleperceptual,32,responsePerceptual,,2.7,,23.88888889,1,,,13
93,1.60484E+12,08/11/2020 13:22,1.60484E+12,-5,08/11/2020 08:22,12022,43,task-yzt9,,7648753,BLIND,2267207,,live,,,computer,Desktop or Laptop,Windows 10,Chrome 86.0.4240.111,1368x912,1351x912,,Meta-Task,29,Menta-first,survey-likert,504,627302,2489,"{""Q0"":4}",,,,simpleperceptual,32,confidencerating,0.666666667,2.7,0.555555556,24.44444444,1,,,13
94,1.60484E+12,08/11/2020 13:22,1.60484E+12,-5,08/11/2020 08:22,12022,43,task-yzt9,,7648753,BLIND,2267207,,live,,,computer,Desktop or Laptop,Windows 10,Chrome 86.0.4240.111,1368x912,1351x912,,Meta-Task,29,Menta-first,doublestim,511,632444,903,,87,,,simpleperceptual,33,responsePerceptual,,2.8,,24.44444444,1,,,13
95,1.60484E+12,08/11/2020 13:22,1.60484E+12,-5,08/11/2020 08:22,12022,43,task-yzt9,,7648753,BLIND,2267207,,live,,,computer,Desktop or Laptop,Windows 10,Chrome 86.0.4240.111,1368x912,1351x912,,Meta-Task,29,Menta-first,survey-likert,513,636991,3955,"{""Q0"":5}",,,,simpleperceptual,33,confidencerating,0.833333333,2.8,0.305555556,24.75,1,,,13
96,1.60484E+12,08/11/2020 13:22,1.60484E+12,-5,08/11/2020 08:22,12022,43,task-yzt9,,7648753,BLIND,2267207,,live,,,computer,Desktop or Laptop,Windows 10,Chrome 86.0.4240.111,1368x912,1351x912,,Meta-Task,29,Menta-first,doublestim,520,641967,627,,87,1,,simpleperceptual,34,responsePerceptual,,2.9,,24.75,1,,,13
97,1.60484E+12,08/11/2020 13:22,1.60484E+12,-5,08/11/2020 08:22,12022,43,task-yzt9,,7648753,BLIND,2267207,,live,,,computer,Desktop or Laptop,Windows 10,Chrome 86.0.4240.111,1368x912,1351x912,,Meta-Task,29,Menta-first,survey-likert,522,644588,2034,"{""Q0"":5}",,1,,simpleperceptual,34,confidencerating,0.833333333,2.9,0.972222222,25.72222222,1,,,13
98,1.60484E+12,08/11/2020 13:22,1.60484E+12,-5,08/11/2020 08:22,12022,43,task-yzt9,,7648753,BLIND,2267207,,live,,,computer,Desktop or Laptop,Windows 10,Chrome 86.0.4240.111,1368x912,1351x912,,Meta-Task,29,Menta-first,doublestim,529,649505,572,,87,1,,simpleperceptual,35,responsePerceptual,,2.9,,25.72222222,1,,,13
99,1.60484E+12,08/11/2020 13:22,1.60484E+12,-5,08/11/2020 08:22,12022,43,task-yzt9,,7648753,BLIND,2267207,,live,,,computer,Desktop or Laptop,Windows 10,Chrome 86.0.4240.111,1368x912,1351x912,,Meta-Task,29,Menta-first,survey-likert,531,651863,1777,"{""Q0"":5}",,1,,simpleperceptual,35,confidencerating,0.833333333,2.9,0.972222222,26.69444444,1,,,13
100,1.60484E+12,08/11/2020 13:22,1.60484E+12,-5,08/11/2020 08:22,12022,43,task-yzt9,,7648753,BLIND,2267207,,live,,,computer,Desktop or Laptop,Windows 10,Chrome 86.0.4240.111,1368x912,1351x912,,Meta-Task,29,Menta-first,doublestim,538,656832,602,,87,,,simpleperceptual,36,responsePerceptual,,2.8,,26.69444444,1,,,14
101,1.60484E+12,08/11/2020 13:22,1.60484E+12,-5,08/11/2020 08:22,12022,43,task-yzt9,,7648753,BLIND,2267207,,live,,,computer,Desktop or Laptop,Windows 10,Chrome 86.0.4240.111,1368x912,1351x912,,Meta-Task,29,Menta-first,survey-likert,540,660019,2561,"{""Q0"":4}",,,,simpleperceptual,36,confidencerating,0.666666667,2.8,0.555555556,27.25,1,,,14
102,1.60484E+12,08/11/2020 13:23,1.60484E+12,-5,08/11/2020 08:23,12022,43,task-yzt9,,7648753,BLIND,2267207,,live,,,computer,Desktop or Laptop,Windows 10,Chrome 86.0.4240.111,1368x912,1351x912,,Meta-Task,29,Menta-first,doublestim,547,664952,638,,87,1,,simpleperceptual,37,responsePerceptual,,2.9,,27.25,1,,,15
103,1.60484E+12,08/11/2020 13:23,1.60484E+12,-5,08/11/2020 08:23,12022,43,task-yzt9,,7648753,BLIND,2267207,,live,,,computer,Desktop or Laptop,Windows 10,Chrome 86.0.4240.111,1368x912,1351x912,,Meta-Task,29,Menta-first,survey-likert,549,667165,1637,"{""Q0"":5}",,1,,simpleperceptual,37,confidencerating,0.833333333,2.9,0.972222222,28.22222222,1,,,15
104,1.60484E+12,08/11/2020 13:23,1.60484E+12,-5,08/11/2020 08:23,12022,43,task-yzt9,,7648753,BLIND,2267207,,live,,,computer,Desktop or Laptop,Windows 10,Chrome 86.0.4240.111,1368x912,1351x912,,Meta-Task,29,Menta-first,doublestim,556,672466,991,,87,,,simpleperceptual,38,responsePerceptual,,2.9,,28.22222222,1,,,15
105,1.60484E+12,08/11/2020 13:23,1.60484E+12,-5,08/11/2020 08:23,12022,43,task-yzt9,,7648753,BLIND,2267207,,live,,,computer,Desktop or Laptop,Windows 10,Chrome 86.0.4240.111,1368x912,1351x912,,Meta-Task,29,Menta-first,survey-likert,558,675329,2301,"{""Q0"":5}",,,,simpleperceptual,38,confidencerating,0.833333333,2.9,0.305555556,28.52777778,1,,,15
106,1.60484E+12,08/11/2020 13:23,1.60484E+12,-5,08/11/2020 08:23,12022,43,task-yzt9,,7648753,BLIND,2267207,,live,,,computer,Desktop or Laptop,Windows 10,Chrome 86.0.4240.111,1368x912,1351x912,,Meta-Task,29,Menta-first,doublestim,565,680082,509,,87,,,simpleperceptual,39,responsePerceptual,,3,,28.52777778,1,,,15
107,1.60484E+12,08/11/2020 13:23,1.60484E+12,-5,08/11/2020 08:23,12022,43,task-yzt9,,7648753,BLIND,2267207,,live,,,computer,Desktop or Laptop,Windows 10,Chrome 86.0.4240.111,1368x912,1351x912,,Meta-Task,29,Menta-first,survey-likert,567,682248,1568,"{""Q0"":5}",,,,simpleperceptual,40,confidencerating,0.833333333,3.1,0.305555556,28.83333333,1,,,15
108,1.60484E+12,08/11/2020 13:23,1.60484E+12,-5,08/11/2020 08:23,12022,43,task-yzt9,,7648753,BLIND,2267207,,live,,,computer,Desktop or Laptop,Windows 10,Chrome 86.0.4240.111,1368x912,1351x912,,Meta-Task,29,Menta-first,doublestim,574,687315,747,,87,1,,simpleperceptual,40,responsePerceptual,,3.1,,28.83333333,1,,,15
109,1.60484E+12,08/11/2020 13:23,1.60484E+12,-5,08/11/2020 08:23,12022,43,task-yzt9,,7648753,BLIND,2267207,,live,,,computer,Desktop or Laptop,Windows 10,Chrome 86.0.4240.111,1368x912,1351x912,,Meta-Task,29,Menta-first,survey-likert,576,689856,1935,"{""Q0"":6}",,1,,simpleperceptual,40,confidencerating,1,3.1,1,29.83333333,1,,,15
110,1.60484E+12,08/11/2020 13:23,1.60484E+12,-5,08/11/2020 08:23,12022,43,task-yzt9,,7648753,BLIND,2267207,,live,,,computer,Desktop or Laptop,Windows 10,Chrome 86.0.4240.111,1368x912,1351x912,,Meta-Task,29,Menta-first,doublestim,583,694794,655,,87,,,simpleperceptual,41,responsePerceptual,,3.1,,29.83333333,1,,,15
111,1.60484E+12,08/11/2020 13:23,1.60484E+12,-5,08/11/2020 08:23,12022,43,task-yzt9,,7648753,BLIND,2267207,,live,,,computer,Desktop or Laptop,Windows 10,Chrome 86.0.4240.111,1368x912,1351x912,,Meta-Task,29,Menta-first,survey-likert,585,697926,2501,"{""Q0"":5}",,,,simpleperceptual,41,confidencerating,0.833333333,3.1,0.305555556,30.13888889,1,,,15
112,1.60484E+12,08/11/2020 13:23,1.60484E+12,-5,08/11/2020 08:23,12022,43,task-yzt9,,7648753,BLIND,2267207,,live,,,computer,Desktop or Laptop,Windows 10,Chrome 86.0.4240.111,1368x912,1351x912,,Meta-Task,29,Menta-first,doublestim,592,703100,848,,87,1,,simpleperceptual,42,responsePerceptual,,3.2,,30.13888889,1,,,15
113,1.60484E+12,08/11/2020 13:23,1.60484E+12,-5,08/11/2020 08:23,12022,43,task-yzt9,,7648753,BLIND,2267207,,live,,,computer,Desktop or Laptop,Windows 10,Chrome 86.0.4240.111,1368x912,1351x912,,Meta-Task,29,Menta-first,survey-likert,594,706357,2653,"{""Q0"":6}",,1,,simpleperceptual,42,confidencerating,1,3.2,1,31.13888889,1,,,15
114,1.60484E+12,08/11/2020 13:27,1.60484E+12,-5,08/11/2020 08:27,12022,43,task-yzt9,,7648753,BLIND,2267207,,live,,,computer,Desktop or Laptop,Windows 10,Chrome 86.0.4240.111,1368x912,1351x912,,Meta-Task,29,Menta-first,doublestim,602,925161,528,,69,,,simpleperceptual,43,responsePerceptual,,3.2,,31.13888889,1,,,15
115,1.60484E+12,08/11/2020 13:27,1.60484E+12,-5,08/11/2020 08:27,12022,43,task-yzt9,,7648753,BLIND,2267207,,live,,,computer,Desktop or Laptop,Windows 10,Chrome 86.0.4240.111,1368x912,1351x912,,Meta-Task,29,Menta-first,survey-likert,604,928020,2281,"{""Q0"":6}",,,,simpleperceptual,43,confidencerating,1,3.2,0,31.13888889,1,,,15
116,1.60484E+12,08/11/2020 13:27,1.60484E+12,-5,08/11/2020 08:27,12022,43,task-yzt9,,7648753,BLIND,2267207,,live,,,computer,Desktop or Laptop,Windows 10,Chrome 86.0.4240.111,1368x912,1351x912,,Meta-Task,29,Menta-first,doublestim,611,932673,439,,87,1,,simpleperceptual,44,responsePerceptual,,3.2,,31.13888889,1,,,15
117,1.60484E+12,08/11/2020 13:27,1.60484E+12,-5,08/11/2020 08:27,12022,43,task-yzt9,,7648753,BLIND,2267207,,live,,,computer,Desktop or Laptop,Windows 10,Chrome 86.0.4240.111,1368x912,1351x912,,Meta-Task,29,Menta-first,survey-likert,613,935584,2306,"{""Q0"":5}",,1,,simpleperceptual,44,confidencerating,0.833333333,3.2,0.972222222,32.11111111,1,,,15
118,1.60484E+12,08/11/2020 13:27,1.60484E+12,-5,08/11/2020 08:27,12022,43,task-yzt9,,7648753,BLIND,2267207,,live,,,computer,Desktop or Laptop,Windows 10,Chrome 86.0.4240.111,1368x912,1351x912,,Meta-Task,29,Menta-first,doublestim,620,940770,860,,69,1,,simpleperceptual,45,responsePerceptual,,3.2,,32.11111111,1,,,15
119,1.60484E+12,08/11/2020 13:27,1.60484E+12,-5,08/11/2020 08:27,12022,43,task-yzt9,,7648753,BLIND,2267207,,live,,,computer,Desktop or Laptop,Windows 10,Chrome 86.0.4240.111,1368x912,1351x912,,Meta-Task,29,Menta-first,survey-likert,622,943059,1726,"{""Q0"":4}",,1,,simpleperceptual,45,confidencerating,0.666666667,3.2,0.888888889,33,1,,,15
120,1.60484E+12,08/11/2020 13:27,1.60484E+12,-5,08/11/2020 08:27,12022,43,task-yzt9,,7648753,BLIND,2267207,,live,,,computer,Desktop or Laptop,Windows 10,Chrome 86.0.4240.111,1368x912,1351x912,,Meta-Task,29,Menta-first,doublestim,629,948041,644,,69,1,,simpleperceptual,46,responsePerceptual,,3.2,,33,1,,,15
121,1.60484E+12,08/11/2020 13:27,1.60484E+12,-5,08/11/2020 08:27,12022,43,task-yzt9,,7648753,BLIND,2267207,,live,,,computer,Desktop or Laptop,Windows 10,Chrome 86.0.4240.111,1368x912,1351x912,,Meta-Task,29,Menta-first,survey-likert,631,951463,2835,"{""Q0"":3}",,1,,simpleperceptual,46,confidencerating,0.5,3.2,0.75,33.75,1,,,15
122,1.60484E+12,08/11/2020 13:27,1.60484E+12,-5,08/11/2020 08:27,12022,43,task-yzt9,,7648753,BLIND,2267207,,live,,,computer,Desktop or Laptop,Windows 10,Chrome 86.0.4240.111,1368x912,1351x912,,Meta-Task,29,Menta-first,doublestim,638,956370,470,,69,1,,simpleperceptual,47,responsePerceptual,,3.2,,33.75,1,,,15
123,1.60484E+12,08/11/2020 13:27,1.60484E+12,-5,08/11/2020 08:27,12022,43,task-yzt9,,7648753,BLIND,2267207,,live,,,computer,Desktop or Laptop,Windows 10,Chrome 86.0.4240.111,1368x912,1351x912,,Meta-Task,29,Menta-first,survey-likert,640,959041,2056,"{""Q0"":4}",,1,,simpleperceptual,47,confidencerating,0.666666667,3.2,0.888888889,34.63888889,1,,,15
124,1.60484E+12,08/11/2020 13:28,1.60484E+12,-5,08/11/2020 08:28,12022,43,task-yzt9,,7648753,BLIND,2267207,,live,,,computer,Desktop or Laptop,Windows 10,Chrome 86.0.4240.111,1368x912,1351x912,,Meta-Task,29,Menta-first,doublestim,647,963902,584,,87,1,,simpleperceptual,48,responsePerceptual,,3.2,,34.63888889,1,,,15
125,1.60484E+12,08/11/2020 13:28,1.60484E+12,-5,08/11/2020 08:28,12022,43,task-yzt9,,7648753,BLIND,2267207,,live,,,computer,Desktop or Laptop,Windows 10,Chrome 86.0.4240.111,1368x912,1351x912,,Meta-Task,29,Menta-first,survey-likert,649,966353,1835,"{""Q0"":4}",,1,,simpleperceptual,48,confidencerating,0.666666667,3.2,0.888888889,35.52777778,1,,,15
126,1.60484E+12,08/11/2020 13:28,1.60484E+12,-5,08/11/2020 08:28,12022,43,task-yzt9,,7648753,BLIND,2267207,,live,,,computer,Desktop or Laptop,Windows 10,Chrome 86.0.4240.111,1368x912,1351x912,,Meta-Task,29,Menta-first,doublestim,656,970707,3,,69,1,,simpleperceptual,49,responsePerceptual,,3.2,,35.52777778,1,,,15
127,1.60484E+12,08/11/2020 13:28,1.60484E+12,-5,08/11/2020 08:28,12022,43,task-yzt9,,7648753,BLIND,2267207,,live,,,computer,Desktop or Laptop,Windows 10,Chrome 86.0.4240.111,1368x912,1351x912,,Meta-Task,29,Menta-first,survey-likert,658,973295,1996,"{""Q0"":4}",,1,,simpleperceptual,49,confidencerating,0.666666667,3.2,0.888888889,36.41666667,1,,,15
128,1.60484E+12,08/11/2020 13:28,1.60484E+12,-5,08/11/2020 08:28,12022,43,task-yzt9,,7648753,BLIND,2267207,,live,,,computer,Desktop or Laptop,Windows 10,Chrome 86.0.4240.111,1368x912,1351x912,,Meta-Task,29,Menta-first,doublestim,665,978123,477,,87,1,,simpleperceptual,50,responsePerceptual,,3.2,,36.41666667,1,,,15
129,1.60484E+12,08/11/2020 13:28,1.60484E+12,-5,08/11/2020 08:28,12022,43,task-yzt9,,7648753,BLIND,2267207,,live,,,computer,Desktop or Laptop,Windows 10,Chrome 86.0.4240.111,1368x912,1351x912,,Meta-Task,29,Menta-first,survey-likert,667,980456,1740,"{""Q0"":4}",,1,,simpleperceptual,50,confidencerating,0.666666667,3.2,0.888888889,37.30555556,1,,,15
130,1.60484E+12,08/11/2020 13:28,1.60484E+12,-5,08/11/2020 08:28,12022,43,task-yzt9,,7648753,BLIND,2267207,,live,,,computer,Desktop or Laptop,Windows 10,Chrome 86.0.4240.111,1368x912,1351x912,,Meta-Task,29,Menta-first,doublestim,674,985135,398,,69,1,,simpleperceptual,51,responsePerceptual,,3.2,,37.30555556,1,,,15
131,1.60484E+12,08/11/2020 13:28,1.60484E+12,-5,08/11/2020 08:28,12022,43,task-yzt9,,7648753,BLIND,2267207,,live,,,computer,Desktop or Laptop,Windows 10,Chrome 86.0.4240.111,1368x912,1351x912,,Meta-Task,29,Menta-first,survey-likert,676,989534,3811,"{""Q0"":4}",,1,,simpleperceptual,51,confidencerating,0.666666667,3.2,0.888888889,38.19444444,1,,,15
132,1.60484E+12,08/11/2020 13:28,1.60484E+12,-5,08/11/2020 08:28,12022,43,task-yzt9,,7648753,BLIND,2267207,,live,,,computer,Desktop or Laptop,Windows 10,Chrome 86.0.4240.111,1368x912,1351x912,,Meta-Task,29,Menta-first,doublestim,683,994462,699,,69,1,,simpleperceptual,52,responsePerceptual,,3.2,,38.19444444,1,,,15
133,1.60484E+12,08/11/2020 13:28,1.60484E+12,-5,08/11/2020 08:28,12022,43,task-yzt9,,7648753,BLIND,2267207,,live,,,computer,Desktop or Laptop,Windows 10,Chrome 86.0.4240.111,1368x912,1351x912,,Meta-Task,29,Menta-first,survey-likert,685,997431,2395,"{""Q0"":4}",,1,,simpleperceptual,52,confidencerating,0.666666667,3.2,0.888888889,39.08333333,1,,,15
134,1.60484E+12,08/11/2020 13:28,1.60484E+12,-5,08/11/2020 08:28,12022,43,task-yzt9,,7648753,BLIND,2267207,,live,,,computer,Desktop or Laptop,Windows 10,Chrome 86.0.4240.111,1368x912,1351x912,,Meta-Task,29,Menta-first,doublestim,692,1002362,606,,87,1,,simpleperceptual,53,responsePerceptual,,3.2,,39.08333333,1,,,15
135,1.60484E+12,08/11/2020 13:28,1.60484E+12,-5,08/11/2020 08:28,12022,43,task-yzt9,,7648753,BLIND,2267207,,live,,,computer,Desktop or Laptop,Windows 10,Chrome 86.0.4240.111,1368x912,1351x912,,Meta-Task,29,Menta-first,survey-likert,694,1005212,2265,"{""Q0"":5}",,1,,simpleperceptual,53,confidencerating,0.833333333,3.2,0.972222222,40.05555556,1,,,15
136,1.60484E+12,08/11/2020 13:28,1.60484E+12,-5,08/11/2020 08:28,12022,43,task-yzt9,,7648753,BLIND,2267207,,live,,,computer,Desktop or Laptop,Windows 10,Chrome 86.0.4240.111,1368x912,1351x912,,Meta-Task,29,Menta-first,doublestim,701,1010274,663,,69,1,,simpleperceptual,54,responsePerceptual,,3.2,,40.05555556,1,,,15
137,1.60484E+12,08/11/2020 13:28,1.60484E+12,-5,08/11/2020 08:28,12022,43,task-yzt9,,7648753,BLIND,2267207,,live,,,computer,Desktop or Laptop,Windows 10,Chrome 86.0.4240.111,1368x912,1351x912,,Meta-Task,29,Menta-first,survey-likert,703,1012998,2147,"{""Q0"":5}",,1,,simpleperceptual,55,confidencerating,0.833333333,3.2,0.972222222,41.02777778,1,,,15
138,1.60484E+12,08/11/2020 13:28,1.60484E+12,-5,08/11/2020 08:28,12022,43,task-yzt9,,7648753,BLIND,2267207,,live,,,computer,Desktop or Laptop,Windows 10,Chrome 86.0.4240.111,1368x912,1351x912,,Meta-Task,29,Menta-first,doublestim,710,1018102,752,,87,1,,simpleperceptual,55,responsePerceptual,,3.2,,41.02777778,1,,,15
139,1.60484E+12,08/11/2020 13:29,1.60484E+12,-5,08/11/2020 08:29,12022,43,task-yzt9,,7648753,BLIND,2267207,,live,,,computer,Desktop or Laptop,Windows 10,Chrome 86.0.4240.111,1368x912,1351x912,,Meta-Task,29,Menta-first,survey-likert,712,1028145,9452,"{""Q0"":5}",,1,,simpleperceptual,55,confidencerating,0.833333333,3.2,0.972222222,42,1,,,15
140,1.60484E+12,08/11/2020 13:29,1.60484E+12,-5,08/11/2020 08:29,12022,43,task-yzt9,,7648753,BLIND,2267207,,live,,,computer,Desktop or Laptop,Windows 10,Chrome 86.0.4240.111,1368x912,1351x912,,Meta-Task,29,Menta-first,doublestim,719,1033111,628,,87,1,,simpleperceptual,56,responsePerceptual,,3.2,,42,1,,,15
141,1.60484E+12,08/11/2020 13:29,1.60484E+12,-5,08/11/2020 08:29,12022,43,task-yzt9,,7648753,BLIND,2267207,,live,,,computer,Desktop or Laptop,Windows 10,Chrome 86.0.4240.111,1368x912,1351x912,,Meta-Task,29,Menta-first,survey-likert,721,1035624,1939,"{""Q0"":4}",,1,,simpleperceptual,56,confidencerating,0.666666667,3.2,0.888888889,42.88888889,1,,,15
142,1.60484E+12,08/11/2020 13:29,1.60484E+12,-5,08/11/2020 08:29,12022,43,task-yzt9,,7648753,BLIND,2267207,,live,,,computer,Desktop or Laptop,Windows 10,Chrome 86.0.4240.111,1368x912,1351x912,,Meta-Task,29,Menta-first,doublestim,728,1040655,792,,87,1,,simpleperceptual,57,responsePerceptual,,3.2,,42.88888889,1,,,15
143,1.60484E+12,08/11/2020 13:29,1.60484E+12,-5,08/11/2020 08:29,12022,43,task-yzt9,,7648753,BLIND,2267207,,live,,,computer,Desktop or Laptop,Windows 10,Chrome 86.0.4240.111,1368x912,1351x912,,Meta-Task,29,Menta-first,survey-likert,730,1044664,3428,"{""Q0"":2}",,1,,simpleperceptual,57,confidencerating,0.333333333,3.2,0.555555556,43.44444444,1,,,15
144,1.60484E+12,08/11/2020 13:29,1.60484E+12,-5,08/11/2020 08:29,12022,43,task-yzt9,,7648753,BLIND,2267207,,live,,,computer,Desktop or Laptop,Windows 10,Chrome 86.0.4240.111,1368x912,1351x912,,Meta-Task,29,Menta-first,doublestim,737,1051375,2340,,87,,,simpleperceptual,58,responsePerceptual,,3.2,,43.44444444,1,,,15
145,1.60484E+12,08/11/2020 13:29,1.60484E+12,-5,08/11/2020 08:29,12022,43,task-yzt9,,7648753,BLIND,2267207,,live,,,computer,Desktop or Laptop,Windows 10,Chrome 86.0.4240.111,1368x912,1351x912,,Meta-Task,29,Menta-first,survey-likert,739,1053671,1703,"{""Q0"":1}",,,,simpleperceptual,58,confidencerating,0.166666667,3.2,0.972222222,44.41666667,1,,,15
146,1.60484E+12,08/11/2020 13:29,1.60484E+12,-5,08/11/2020 08:29,12022,43,task-yzt9,,7648753,BLIND,2267207,,live,,,computer,Desktop or Laptop,Windows 10,Chrome 86.0.4240.111,1368x912,1351x912,,Meta-Task,29,Menta-first,doublestim,746,1058811,895,,87,1,,simpleperceptual,59,responsePerceptual,,3.2,,44.41666667,1,,,15
147,1.60484E+12,08/11/2020 13:29,1.60484E+12,-5,08/11/2020 08:29,12022,43,task-yzt9,,7648753,BLIND,2267207,,live,,,computer,Desktop or Laptop,Windows 10,Chrome 86.0.4240.111,1368x912,1351x912,,Meta-Task,29,Menta-first,survey-likert,748,1062026,2648,"{""Q0"":5}",,1,,simpleperceptual,59,confidencerating,0.833333333,3.2,0.972222222,45.38888889,1,,,15
148,1.60484E+12,08/11/2020 13:29,1.60484E+12,-5,08/11/2020 08:29,12022,43,task-yzt9,,7648753,BLIND,2267207,,live,,,computer,Desktop or Laptop,Windows 10,Chrome 86.0.4240.111,1368x912,1351x912,,Meta-Task,29,Menta-first,doublestim,755,1068143,1759,,87,,,simpleperceptual,60,responsePerceptual,,3.2,,45.38888889,1,,,15
149,1.60484E+12,08/11/2020 13:29,1.60484E+12,-5,08/11/2020 08:29,12022,43,task-yzt9,,7648753,BLIND,2267207,,live,,,computer,Desktop or Laptop,Windows 10,Chrome 86.0.4240.111,1368x912,1351x912,,Meta-Task,29,Menta-first,survey-likert,757,1070598,1849,"{""Q0"":2}",,,,simpleperceptual,60,confidencerating,0.333333333,3.2,0.888888889,46.27777778,1,,,15
150,1.60484E+12,08/11/2020 13:29,1.60484E+12,-5,08/11/2020 08:29,12022,43,task-yzt9,,7648753,BLIND,2267207,,live,,,computer,Desktop or Laptop,Windows 10,Chrome 86.0.4240.111,1368x912,1351x912,,Meta-Task,29,Menta-first,doublestim,764,1075794,871,,87,1,,simpleperceptual,61,responsePerceptual,,3.2,,46.27777778,1,,,15
151,1.60484E+12,08/11/2020 13:29,1.60484E+12,-5,08/11/2020 08:29,12022,43,task-yzt9,,7648753,BLIND,2267207,,live,,,computer,Desktop or Laptop,Windows 10,Chrome 86.0.4240.111,1368x912,1351x912,,Meta-Task,29,Menta-first,survey-likert,766,1079608,3238,"{""Q0"":3}",,1,,simpleperceptual,61,confidencerating,0.5,3.2,0.75,47.02777778,1,,,15
152,1.60484E+12,08/11/2020 13:30,1.60484E+12,-5,08/11/2020 08:30,12022,43,task-yzt9,,7648753,BLIND,2267207,,live,,,computer,Desktop or Laptop,Windows 10,Chrome 86.0.4240.111,1368x912,1351x912,,Meta-Task,29,Menta-first,doublestim,773,1086376,2454,,87,,,simpleperceptual,62,responsePerceptual,,3.2,,47.02777778,1,,,15
153,1.60484E+12,08/11/2020 13:30,1.60484E+12,-5,08/11/2020 08:30,12022,43,task-yzt9,,7648753,BLIND,2267207,,live,,,computer,Desktop or Laptop,Windows 10,Chrome 86.0.4240.111,1368x912,1351x912,,Meta-Task,29,Menta-first,survey-likert,775,1088394,1444,"{""Q0"":2}",,,,simpleperceptual,62,confidencerating,0.333333333,3.2,0.888888889,47.91666667,1,,,15
154,1.60484E+12,08/11/2020 13:30,1.60484E+12,-5,08/11/2020 08:30,12022,43,task-yzt9,,7648753,BLIND,2267207,,live,,,computer,Desktop or Laptop,Windows 10,Chrome 86.0.4240.111,1368x912,1351x912,,Meta-Task,29,Menta-first,doublestim,782,1093351,670,,87,1,,simpleperceptual,63,responsePerceptual,,3.2,,47.91666667,1,,,15
155,1.60484E+12,08/11/2020 13:30,1.60484E+12,-5,08/11/2020 08:30,12022,43,task-yzt9,,7648753,BLIND,2267207,,live,,,computer,Desktop or Laptop,Windows 10,Chrome 86.0.4240.111,1368x912,1351x912,,Meta-Task,29,Menta-first,survey-likert,784,1095561,1626,"{""Q0"":6}",,1,,simpleperceptual,63,confidencerating,1,3.2,1,48.91666667,1,,,15
156,1.60484E+12,08/11/2020 13:30,1.60484E+12,-5,08/11/2020 08:30,12022,43,task-yzt9,,7648753,BLIND,2267207,,live,,,computer,Desktop or Laptop,Windows 10,Chrome 86.0.4240.111,1368x912,1351x912,,Meta-Task,29,Menta-first,doublestim,791,1102205,2289,,69,1,,simpleperceptual,64,responsePerceptual,,3.2,,48.91666667,1,,,15
157,1.60484E+12,08/11/2020 13:30,1.60484E+12,-5,08/11/2020 08:30,12022,43,task-yzt9,,7648753,BLIND,2267207,,live,,,computer,Desktop or Laptop,Windows 10,Chrome 86.0.4240.111,1368x912,1351x912,,Meta-Task,29,Menta-first,survey-likert,793,1105878,3112,"{""Q0"":3}",,1,,simpleperceptual,64,confidencerating,0.5,3.2,0.75,49.66666667,1,,,15
158,1.60484E+12,08/11/2020 13:30,1.60484E+12,-5,08/11/2020 08:30,12022,43,task-yzt9,,7648753,BLIND,2267207,,live,,,computer,Desktop or Laptop,Windows 10,Chrome 86.0.4240.111,1368x912,1351x912,,Meta-Task,29,Menta-first,doublestim,800,1111773,1611,,69,1,,simpleperceptual,65,responsePerceptual,,3.2,,49.66666667,1,,,15
159,1.60484E+12,08/11/2020 13:30,1.60484E+12,-5,08/11/2020 08:30,12022,43,task-yzt9,,7648753,BLIND,2267207,,live,,,computer,Desktop or Laptop,Windows 10,Chrome 86.0.4240.111,1368x912,1351x912,,Meta-Task,29,Menta-first,survey-likert,802,1114137,1808,"{""Q0"":2}",,1,,simpleperceptual,66,confidencerating,0.333333333,3.2,0.555555556,50.22222222,1,,,15
160,1.60484E+12,08/11/2020 13:30,1.60484E+12,-5,08/11/2020 08:30,12022,43,task-yzt9,,7648753,BLIND,2267207,,live,,,computer,Desktop or Laptop,Windows 10,Chrome 86.0.4240.111,1368x912,1351x912,,Meta-Task,29,Menta-first,doublestim,809,1119804,1394,,87,,,simpleperceptual,66,responsePerceptual,,3.2,,50.22222222,1,,,15
161,1.60484E+12,08/11/2020 13:30,1.60484E+12,-5,08/11/2020 08:30,12022,43,task-yzt9,,7648753,BLIND,2267207,,live,,,computer,Desktop or Laptop,Windows 10,Chrome 86.0.4240.111,1368x912,1351x912,,Meta-Task,29,Menta-first,survey-likert,811,1122268,1887,"{""Q0"":3}",,,,simpleperceptual,66,confidencerating,0.5,3.2,0.75,50.97222222,1,,,15
162,1.60484E+12,08/11/2020 13:30,1.60484E+12,-5,08/11/2020 08:30,12022,43,task-yzt9,,7648753,BLIND,2267207,,live,,,computer,Desktop or Laptop,Windows 10,Chrome 86.0.4240.111,1368x912,1351x912,,Meta-Task,29,Menta-first,doublestim,818,1127576,939,,87,,,simpleperceptual,67,responsePerceptual,,3.2,,50.97222222,1,,,15
163,1.60484E+12,08/11/2020 13:30,1.60484E+12,-5,08/11/2020 08:30,12022,43,task-yzt9,,7648753,BLIND,2267207,,live,,,computer,Desktop or Laptop,Windows 10,Chrome 86.0.4240.111,1368x912,1351x912,,Meta-Task,29,Menta-first,survey-likert,820,1129343,1169,"{""Q0"":3}",,,,simpleperceptual,67,confidencerating,0.5,3.2,0.75,51.72222222,1,,,15
164,1.60484E+12,08/11/2020 13:30,1.60484E+12,-5,08/11/2020 08:30,12022,43,task-yzt9,,7648753,BLIND,2267207,,live,,,computer,Desktop or Laptop,Windows 10,Chrome 86.0.4240.111,1368x912,1351x912,,Meta-Task,29,Menta-first,doublestim,827,1136194,2534,,87,,,simpleperceptual,68,responsePerceptual,,3.2,,51.72222222,1,,,15
165,1.60484E+12,08/11/2020 13:30,1.60484E+12,-5,08/11/2020 08:30,12022,43,task-yzt9,,7648753,BLIND,2267207,,live,,,computer,Desktop or Laptop,Windows 10,Chrome 86.0.4240.111,1368x912,1351x912,,Meta-Task,29,Menta-first,survey-likert,829,1139155,2400,"{""Q0"":3}",,,,simpleperceptual,68,confidencerating,0.5,3.2,0.75,52.47222222,1,,,15
166,1.60484E+12,08/11/2020 13:31,1.60484E+12,-5,08/11/2020 08:31,12022,43,task-yzt9,,7648753,BLIND,2267207,,live,,,computer,Desktop or Laptop,Windows 10,Chrome 86.0.4240.111,1368x912,1351x912,,Meta-Task,29,Menta-first,doublestim,836,1144494,980,,69,1,,simpleperceptual,69,responsePerceptual,,3.2,,52.47222222,1,,,15
167,1.60484E+12,08/11/2020 13:31,1.60484E+12,-5,08/11/2020 08:31,12022,43,task-yzt9,,7648753,BLIND,2267207,,live,,,computer,Desktop or Laptop,Windows 10,Chrome 86.0.4240.111,1368x912,1351x912,,Meta-Task,29,Menta-first,survey-likert,838,1147170,2095,"{""Q0"":4}",,1,,simpleperceptual,69,confidencerating,0.666666667,3.2,0.888888889,53.36111111,1,,,15
168,1.60484E+12,08/11/2020 13:31,1.60484E+12,-5,08/11/2020 08:31,12022,43,task-yzt9,,7648753,BLIND,2267207,,live,,,computer,Desktop or Laptop,Windows 10,Chrome 86.0.4240.111,1368x912,1351x912,,Meta-Task,29,Menta-first,doublestim,845,1153255,1823,,87,,,simpleperceptual,70,responsePerceptual,,3.2,,53.36111111,1,,,15
169,1.60484E+12,08/11/2020 13:31,1.60484E+12,-5,08/11/2020 08:31,12022,43,task-yzt9,,7648753,BLIND,2267207,,live,,,computer,Desktop or Laptop,Windows 10,Chrome 86.0.4240.111,1368x912,1351x912,,Meta-Task,29,Menta-first,survey-likert,847,1155963,2135,"{""Q0"":3}",,,,simpleperceptual,70,confidencerating,0.5,3.2,0.75,54.11111111,1,,,15
170,1.60484E+12,08/11/2020 13:31,1.60484E+12,-5,08/11/2020 08:31,12022,43,task-yzt9,,7648753,BLIND,2267207,,live,,,computer,Desktop or Laptop,Windows 10,Chrome 86.0.4240.111,1368x912,1351x912,,Meta-Task,29,Menta-first,doublestim,854,1161285,934,,87,1,,simpleperceptual,71,responsePerceptual,,3.2,,54.11111111,1,,,15
171,1.60484E+12,08/11/2020 13:31,1.60484E+12,-5,08/11/2020 08:31,12022,43,task-yzt9,,7648753,BLIND,2267207,,live,,,computer,Desktop or Laptop,Windows 10,Chrome 86.0.4240.111,1368x912,1351x912,,Meta-Task,29,Menta-first,survey-likert,856,1163431,1557,"{""Q0"":4}",,1,,simpleperceptual,71,confidencerating,0.666666667,3.2,0.888888889,55,1,,,15
172,1.60484E+12,08/11/2020 13:31,1.60484E+12,-5,08/11/2020 08:31,12022,43,task-yzt9,,7648753,BLIND,2267207,,live,,,computer,Desktop or Laptop,Windows 10,Chrome 86.0.4240.111,1368x912,1351x912,,Meta-Task,29,Menta-first,doublestim,863,1168833,1042,,69,1,,simpleperceptual,72,responsePerceptual,,3.2,,55,1,,,15
173,1.60484E+12,08/11/2020 13:31,1.60484E+12,-5,08/11/2020 08:31,12022,43,task-yzt9,,7648753,BLIND,2267207,,live,,,computer,Desktop or Laptop,Windows 10,Chrome 86.0.4240.111,1368x912,1351x912,,Meta-Task,29,Menta-first,survey-likert,865,1172118,2703,"{""Q0"":3}",,1,,simpleperceptual,72,confidencerating,0.5,3.2,0.75,55.75,1,,,15
174,1.60484E+12,08/11/2020 13:31,1.60484E+12,-5,08/11/2020 08:31,12022,43,task-yzt9,,7648753,BLIND,2267207,,live,,,computer,Desktop or Laptop,Windows 10,Chrome 86.0.4240.111,1368x912,1351x912,,Meta-Task,29,Menta-first,doublestim,872,1177117,710,,87,1,,simpleperceptual,73,responsePerceptual,,3.2,,55.75,1,,,15
175,1.60484E+12,08/11/2020 13:31,1.60484E+12,-5,08/11/2020 08:31,12022,43,task-yzt9,,7648753,BLIND,2267207,,live,,,computer,Desktop or Laptop,Windows 10,Chrome 86.0.4240.111,1368x912,1351x912,,Meta-Task,29,Menta-first,survey-likert,874,1179058,1349,"{""Q0"":5}",,1,,simpleperceptual,73,confidencerating,0.833333333,3.2,0.972222222,56.72222222,1,,,15
176,1.60484E+12,08/11/2020 13:31,1.60484E+12,-5,08/11/2020 08:31,12022,43,task-yzt9,,7648753,BLIND,2267207,,live,,,computer,Desktop or Laptop,Windows 10,Chrome 86.0.4240.111,1368x912,1351x912,,Meta-Task,29,Menta-first,doublestim,881,1185125,1904,,69,1,,simpleperceptual,74,responsePerceptual,,3.2,,56.72222222,1,,,15
177,1.60484E+12,08/11/2020 13:31,1.60484E+12,-5,08/11/2020 08:31,12022,43,task-yzt9,,7648753,BLIND,2267207,,live,,,computer,Desktop or Laptop,Windows 10,Chrome 86.0.4240.111,1368x912,1351x912,,Meta-Task,29,Menta-first,survey-likert,883,1186848,1141,"{""Q0"":3}",,1,,simpleperceptual,74,confidencerating,0.5,3.2,0.75,57.47222222,1,,,15
178,1.60484E+12,08/11/2020 13:31,1.60484E+12,-5,08/11/2020 08:31,12022,43,task-yzt9,,7648753,BLIND,2267207,,live,,,computer,Desktop or Laptop,Windows 10,Chrome 86.0.4240.111,1368x912,1351x912,,Meta-Task,29,Menta-first,doublestim,890,1193926,2803,,69,1,,simpleperceptual,75,responsePerceptual,,3.2,,57.47222222,1,,,15
179,1.60484E+12,08/11/2020 13:31,1.60484E+12,-5,08/11/2020 08:31,12022,43,task-yzt9,,7648753,BLIND,2267207,,live,,,computer,Desktop or Laptop,Windows 10,Chrome 86.0.4240.111,1368x912,1351x912,,Meta-Task,29,Menta-first,survey-likert,892,1196368,1876,"{""Q0"":2}",,1,,simpleperceptual,75,confidencerating,0.333333333,3.2,0.555555556,58.02777778,1,,,15
180,1.60484E+12,08/11/2020 13:32,1.60484E+12,-5,08/11/2020 08:32,12022,43,task-yzt9,,7648753,BLIND,2267207,,live,,,computer,Desktop or Laptop,Windows 10,Chrome 86.0.4240.111,1368x912,1351x912,,Meta-Task,29,Menta-first,doublestim,899,1201415,767,,87,1,,simpleperceptual,76,responsePerceptual,,3.2,,58.02777778,1,,,15
181,1.60484E+12,08/11/2020 13:32,1.60484E+12,-5,08/11/2020 08:32,12022,43,task-yzt9,,7648753,BLIND,2267207,,live,,,computer,Desktop or Laptop,Windows 10,Chrome 86.0.4240.111,1368x912,1351x912,,Meta-Task,29,Menta-first,survey-likert,901,1204800,2795,"{""Q0"":2}",,1,,simpleperceptual,76,confidencerating,0.333333333,3.2,0.555555556,58.58333333,1,,,15
182,1.60484E+12,08/11/2020 13:32,1.60484E+12,-5,08/11/2020 08:32,12022,43,task-yzt9,,7648753,BLIND,2267207,,live,,,computer,Desktop or Laptop,Windows 10,Chrome 86.0.4240.111,1368x912,1351x912,,Meta-Task,29,Menta-first,doublestim,908,1210075,906,,87,1,,simpleperceptual,77,responsePerceptual,,3.2,,58.58333333,1,,,15
183,1.60484E+12,08/11/2020 13:32,1.60484E+12,-5,08/11/2020 08:32,12022,43,task-yzt9,,7648753,BLIND,2267207,,live,,,computer,Desktop or Laptop,Windows 10,Chrome 86.0.4240.111,1368x912,1351x912,,Meta-Task,29,Menta-first,survey-likert,910,1212448,1762,"{""Q0"":5}",,1,,simpleperceptual,77,confidencerating,0.833333333,3.2,0.972222222,59.55555556,1,,,15
184,1.60484E+12,08/11/2020 13:32,1.60484E+12,-5,08/11/2020 08:32,12022,43,task-yzt9,,7648753,BLIND,2267207,,live,,,computer,Desktop or Laptop,Windows 10,Chrome 86.0.4240.111,1368x912,1351x912,,Meta-Task,29,Menta-first,doublestim,917,1217647,812,,69,1,,simpleperceptual,78,responsePerceptual,,3.2,,59.55555556,1,,,15
185,1.60484E+12,08/11/2020 13:32,1.60484E+12,-5,08/11/2020 08:32,12022,43,task-yzt9,,7648753,BLIND,2267207,,live,,,computer,Desktop or Laptop,Windows 10,Chrome 86.0.4240.111,1368x912,1351x912,,Meta-Task,29,Menta-first,survey-likert,919,1220631,2374,"{""Q0"":6}",,1,,simpleperceptual,78,confidencerating,1,3.2,1,60.55555556,1,,,15
186,1.60484E+12,08/11/2020 13:32,1.60484E+12,-5,08/11/2020 08:32,12022,43,task-yzt9,,7648753,BLIND,2267207,,live,,,computer,Desktop or Laptop,Windows 10,Chrome 86.0.4240.111,1368x912,1351x912,,Meta-Task,29,Menta-first,doublestim,926,1225667,744,,87,1,,simpleperceptual,79,responsePerceptual,,3.2,,60.55555556,1,,,15
187,1.60484E+12,08/11/2020 13:32,1.60484E+12,-5,08/11/2020 08:32,12022,43,task-yzt9,,7648753,BLIND,2267207,,live,,,computer,Desktop or Laptop,Windows 10,Chrome 86.0.4240.111,1368x912,1351x912,,Meta-Task,29,Menta-first,survey-likert,928,1227968,1730,"{""Q0"":6}",,1,,simpleperceptual,80,confidencerating,1,3.2,1,61.55555556,1,,,15
188,1.60484E+12,08/11/2020 13:32,1.60484E+12,-5,08/11/2020 08:32,12022,43,task-yzt9,,7648753,BLIND,2267207,,live,,,computer,Desktop or Laptop,Windows 10,Chrome 86.0.4240.111,1368x912,1351x912,,Meta-Task,29,Menta-first,doublestim,935,1233457,1205,,69,1,,simpleperceptual,80,responsePerceptual,,3.2,,61.55555556,1,,,15
189,1.60484E+12,08/11/2020 13:32,1.60484E+12,-5,08/11/2020 08:32,12022,43,task-yzt9,,7648753,BLIND,2267207,,live,,,computer,Desktop or Laptop,Windows 10,Chrome 86.0.4240.111,1368x912,1351x912,,Meta-Task,29,Menta-first,survey-likert,937,1235752,1680,"{""Q0"":4}",,1,,simpleperceptual,80,confidencerating,0.666666667,3.2,0.888888889,62.44444444,1,,,15
190,1.60484E+12,08/11/2020 13:32,1.60484E+12,-5,08/11/2020 08:32,12022,43,task-yzt9,,7648753,BLIND,2267207,,live,,,computer,Desktop or Laptop,Windows 10,Chrome 86.0.4240.111,1368x912,1351x912,,Meta-Task,29,Menta-first,doublestim,944,1241887,1782,,69,1,,simpleperceptual,81,responsePerceptual,,3.2,,62.44444444,1,,,15
191,1.60484E+12,08/11/2020 13:32,1.60484E+12,-5,08/11/2020 08:32,12022,43,task-yzt9,,7648753,BLIND,2267207,,live,,,computer,Desktop or Laptop,Windows 10,Chrome 86.0.4240.111,1368x912,1351x912,,Meta-Task,29,Menta-first,survey-likert,946,1243565,1107,"{""Q0"":3}",,1,,simpleperceptual,81,confidencerating,0.5,3.2,0.75,63.19444444,1,,,15
192,1.60484E+12,08/11/2020 13:32,1.60484E+12,-5,08/11/2020 08:32,12022,43,task-yzt9,,7648753,BLIND,2267207,,live,,,computer,Desktop or Laptop,Windows 10,Chrome 86.0.4240.111,1368x912,1351x912,,Meta-Task,29,Menta-first,doublestim,953,1248587,654,,87,1,,simpleperceptual,82,responsePerceptual,,3.2,,63.19444444,1,,,15
193,1.60484E+12,08/11/2020 13:32,1.60484E+12,-5,08/11/2020 08:32,12022,43,task-yzt9,,7648753,BLIND,2267207,,live,,,computer,Desktop or Laptop,Windows 10,Chrome 86.0.4240.111,1368x912,1351x912,,Meta-Task,29,Menta-first,survey-likert,955,1251240,2061,"{""Q0"":5}",,1,,simpleperceptual,82,confidencerating,0.833333333,3.2,0.972222222,64.16666667,1,,,15
194,1.60484E+12,08/11/2020 13:32,1.60484E+12,-5,08/11/2020 08:32,12022,43,task-yzt9,,7648753,BLIND,2267207,,live,,,computer,Desktop or Laptop,Windows 10,Chrome 86.0.4240.111,1368x912,1351x912,,Meta-Task,29,Menta-first,doublestim,962,1256339,782,,69,1,,simpleperceptual,83,responsePerceptual,,3.2,,64.16666667,1,,,15
195,1.60484E+12,08/11/2020 13:32,1.60484E+12,-5,08/11/2020 08:32,12022,43,task-yzt9,,7648753,BLIND,2267207,,live,,,computer,Desktop or Laptop,Windows 10,Chrome 86.0.4240.111,1368x912,1351x912,,Meta-Task,29,Menta-first,survey-likert,964,1258607,1690,"{""Q0"":5}",,1,,simpleperceptual,84,confidencerating,0.833333333,3.2,0.972222222,65.13888889,1,,,15
196,1.60484E+12,08/11/2020 13:33,1.60484E+12,-5,08/11/2020 08:33,12022,43,task-yzt9,,7648753,BLIND,2267207,,live,,,computer,Desktop or Laptop,Windows 10,Chrome 86.0.4240.111,1368x912,1351x912,,Meta-Task,29,Menta-first,doublestim,971,1263403,475,,87,1,,simpleperceptual,84,responsePerceptual,,3.2,,65.13888889,1,,,15
197,1.60484E+12,08/11/2020 13:33,1.60484E+12,-5,08/11/2020 08:33,12022,43,task-yzt9,,7648753,BLIND,2267207,,live,,,computer,Desktop or Laptop,Windows 10,Chrome 86.0.4240.111,1368x912,1351x912,,Meta-Task,29,Menta-first,survey-likert,973,1265730,1764,"{""Q0"":4}",,1,,simpleperceptual,84,confidencerating,0.666666667,3.2,0.888888889,66.02777778,1,,,15
198,1.60484E+12,08/11/2020 13:35,1.60484E+12,-5,08/11/2020 08:35,12022,43,task-yzt9,,7648753,BLIND,2267207,,live,,,computer,Desktop or Laptop,Windows 10,Chrome 86.0.4240.111,1368x912,1351x912,,Meta-Task,29,Menta-first,doublestim,981,1425792,785,,87,1,,simpleperceptual,85,responsePerceptual,,3.2,,66.02777778,1,,,15
199,1.60484E+12,08/11/2020 13:35,1.60484E+12,-5,08/11/2020 08:35,12022,43,task-yzt9,,7648753,BLIND,2267207,,live,,,computer,Desktop or Laptop,Windows 10,Chrome 86.0.4240.111,1368x912,1351x912,,Meta-Task,29,Menta-first,survey-likert,983,1428844,2483,"{""Q0"":5}",,1,,simpleperceptual,85,confidencerating,0.833333333,3.2,0.972222222,67,1,,,15
200,1.60484E+12,08/11/2020 13:35,1.60484E+12,-5,08/11/2020 08:35,12022,43,task-yzt9,,7648753,BLIND,2267207,,live,,,computer,Desktop or Laptop,Windows 10,Chrome 86.0.4240.111,1368x912,1351x912,,Meta-Task,29,Menta-first,doublestim,990,1433837,612,,87,1,,simpleperceptual,86,responsePerceptual,,3.2,,67,1,,,15
201,1.60484E+12,08/11/2020 13:35,1.60484E+12,-5,08/11/2020 08:35,12022,43,task-yzt9,,7648753,BLIND,2267207,,live,,,computer,Desktop or Laptop,Windows 10,Chrome 86.0.4240.111,1368x912,1351x912,,Meta-Task,29,Menta-first,survey-likert,992,1436005,1565,"{""Q0"":4}",,1,,simpleperceptual,86,confidencerating,0.666666667,3.2,0.888888889,67.88888889,1,,,15
202,1.60484E+12,08/11/2020 13:36,1.60484E+12,-5,08/11/2020 08:36,12022,43,task-yzt9,,7648753,BLIND,2267207,,live,,,computer,Desktop or Laptop,Windows 10,Chrome 86.0.4240.111,1368x912,1351x912,,Meta-Task,29,Menta-first,doublestim,999,1441714,1513,,69,1,,simpleperceptual,87,responsePerceptual,,3.2,,67.88888889,1,,,15
203,1.60484E+12,08/11/2020 13:36,1.60484E+12,-5,08/11/2020 08:36,12022,43,task-yzt9,,7648753,BLIND,2267207,,live,,,computer,Desktop or Laptop,Windows 10,Chrome 86.0.4240.111,1368x912,1351x912,,Meta-Task,29,Menta-first,survey-likert,1001,1443834,1508,"{""Q0"":2}",,1,,simpleperceptual,87,confidencerating,0.333333333,3.2,0.555555556,68.44444444,1,,,15
204,1.60484E+12,08/11/2020 13:36,1.60484E+12,-5,08/11/2020 08:36,12022,43,task-yzt9,,7648753,BLIND,2267207,,live,,,computer,Desktop or Laptop,Windows 10,Chrome 86.0.4240.111,1368x912,1351x912,,Meta-Task,29,Menta-first,doublestim,1008,1449265,1044,,69,1,,simpleperceptual,88,responsePerceptual,,3.2,,68.44444444,1,,,15
205,1.60484E+12,08/11/2020 13:36,1.60484E+12,-5,08/11/2020 08:36,12022,43,task-yzt9,,7648753,BLIND,2267207,,live,,,computer,Desktop or Laptop,Windows 10,Chrome 86.0.4240.111,1368x912,1351x912,,Meta-Task,29,Menta-first,survey-likert,1010,1451298,1446,"{""Q0"":4}",,1,,simpleperceptual,88,confidencerating,0.666666667,3.2,0.888888889,69.33333333,1,,,15
206,1.60484E+12,08/11/2020 13:36,1.60484E+12,-5,08/11/2020 08:36,12022,43,task-yzt9,,7648753,BLIND,2267207,,live,,,computer,Desktop or Laptop,Windows 10,Chrome 86.0.4240.111,1368x912,1351x912,,Meta-Task,29,Menta-first,doublestim,1017,1456734,1097,,69,1,,simpleperceptual,89,responsePerceptual,,3.2,,69.33333333,1,,,15
207,1.60484E+12,08/11/2020 13:36,1.60484E+12,-5,08/11/2020 08:36,12022,43,task-yzt9,,7648753,BLIND,2267207,,live,,,computer,Desktop or Laptop,Windows 10,Chrome 86.0.4240.111,1368x912,1351x912,,Meta-Task,29,Menta-first,survey-likert,1019,1458157,821,"{""Q0"":3}",,1,,simpleperceptual,89,confidencerating,0.5,3.2,0.75,70.08333333,1,,,15
208,1.60484E+12,08/11/2020 13:36,1.60484E+12,-5,08/11/2020 08:36,12022,43,task-yzt9,,7648753,BLIND,2267207,,live,,,computer,Desktop or Laptop,Windows 10,Chrome 86.0.4240.111,1368x912,1351x912,,Meta-Task,29,Menta-first,doublestim,1026,1463418,900,,87,1,,simpleperceptual,90,responsePerceptual,,3.2,,70.08333333,1,,,15
209,1.60484E+12,08/11/2020 13:36,1.60484E+12,-5,08/11/2020 08:36,12022,43,task-yzt9,,7648753,BLIND,2267207,,live,,,computer,Desktop or Laptop,Windows 10,Chrome 86.0.4240.111,1368x912,1351x912,,Meta-Task,29,Menta-first,survey-likert,1028,1465428,1373,"{""Q0"":4}",,1,,simpleperceptual,91,confidencerating,0.666666667,3.2,0.888888889,70.97222222,1,,,15
210,1.60484E+12,08/11/2020 13:36,1.60484E+12,-5,08/11/2020 08:36,12022,43,task-yzt9,,7648753,BLIND,2267207,,live,,,computer,Desktop or Laptop,Windows 10,Chrome 86.0.4240.111,1368x912,1351x912,,Meta-Task,29,Menta-first,doublestim,1035,1470753,1070,,69,1,,simpleperceptual,91,responsePerceptual,,3.2,,70.97222222,1,,,15
211,1.60484E+12,08/11/2020 13:36,1.60484E+12,-5,08/11/2020 08:36,12022,43,task-yzt9,,7648753,BLIND,2267207,,live,,,computer,Desktop or Laptop,Windows 10,Chrome 86.0.4240.111,1368x912,1351x912,,Meta-Task,29,Menta-first,survey-likert,1037,1473227,1883,"{""Q0"":2}",,1,,simpleperceptual,91,confidencerating,0.333333333,3.2,0.555555556,71.52777778,1,,,15
212,1.60484E+12,08/11/2020 13:36,1.60484E+12,-5,08/11/2020 08:36,12022,43,task-yzt9,,7648753,BLIND,2267207,,live,,,computer,Desktop or Laptop,Windows 10,Chrome 86.0.4240.111,1368x912,1351x912,,Meta-Task,29,Menta-first,doublestim,1044,1478077,537,,87,1,,simpleperceptual,92,responsePerceptual,,3.2,,71.52777778,1,,,15
213,1.60484E+12,08/11/2020 13:36,1.60484E+12,-5,08/11/2020 08:36,12022,43,task-yzt9,,7648753,BLIND,2267207,,live,,,computer,Desktop or Laptop,Windows 10,Chrome 86.0.4240.111,1368x912,1351x912,,Meta-Task,29,Menta-first,survey-likert,1046,1480326,1655,"{""Q0"":5}",,1,,simpleperceptual,92,confidencerating,0.833333333,3.2,0.972222222,72.5,1,,,15
214,1.60484E+12,08/11/2020 13:36,1.60484E+12,-5,08/11/2020 08:36,12022,43,task-yzt9,,7648753,BLIND,2267207,,live,,,computer,Desktop or Laptop,Windows 10,Chrome 86.0.4240.111,1368x912,1351x912,,Meta-Task,29,Menta-first,doublestim,1053,1485364,732,,69,1,,simpleperceptual,93,responsePerceptual,,3.2,,72.5,1,,,15
215,1.60484E+12,08/11/2020 13:36,1.60484E+12,-5,08/11/2020 08:36,12022,43,task-yzt9,,7648753,BLIND,2267207,,live,,,computer,Desktop or Laptop,Windows 10,Chrome 86.0.4240.111,1368x912,1351x912,,Meta-Task,29,Menta-first,survey-likert,1055,1487856,1886,"{""Q0"":2}",,1,,simpleperceptual,93,confidencerating,0.333333333,3.2,0.555555556,73.05555556,1,,,15
216,1.60484E+12,08/11/2020 13:36,1.60484E+12,-5,08/11/2020 08:36,12022,43,task-yzt9,,7648753,BLIND,2267207,,live,,,computer,Desktop or Laptop,Windows 10,Chrome 86.0.4240.111,1368x912,1351x912,,Meta-Task,29,Menta-first,doublestim,1062,1493556,1328,,69,1,,simpleperceptual,94,responsePerceptual,,3.2,,73.05555556,1,,,15
217,1.60484E+12,08/11/2020 13:36,1.60484E+12,-5,08/11/2020 08:36,12022,43,task-yzt9,,7648753,BLIND,2267207,,live,,,computer,Desktop or Laptop,Windows 10,Chrome 86.0.4240.111,1368x912,1351x912,,Meta-Task,29,Menta-first,survey-likert,1064,1497224,3060,"{""Q0"":2}",,1,,simpleperceptual,94,confidencerating,0.333333333,3.2,0.555555556,73.61111111,1,,,15
218,1.60484E+12,08/11/2020 13:37,1.60484E+12,-5,08/11/2020 08:37,12022,43,task-yzt9,,7648753,BLIND,2267207,,live,,,computer,Desktop or Laptop,Windows 10,Chrome 86.0.4240.111,1368x912,1351x912,,Meta-Task,29,Menta-first,doublestim,1071,1503110,1580,,87,1,,simpleperceptual,95,responsePerceptual,,3.2,,73.61111111,1,,,15
219,1.60484E+12,08/11/2020 13:37,1.60484E+12,-5,08/11/2020 08:37,12022,43,task-yzt9,,7648753,BLIND,2267207,,live,,,computer,Desktop or Laptop,Windows 10,Chrome 86.0.4240.111,1368x912,1351x912,,Meta-Task,29,Menta-first,survey-likert,1073,1506221,2527,"{""Q0"":2}",,1,,simpleperceptual,95,confidencerating,0.333333333,3.2,0.555555556,74.16666667,1,,,15
220,1.60484E+12,08/11/2020 13:37,1.60484E+12,-5,08/11/2020 08:37,12022,43,task-yzt9,,7648753,BLIND,2267207,,live,,,computer,Desktop or Laptop,Windows 10,Chrome 86.0.4240.111,1368x912,1351x912,,Meta-Task,29,Menta-first,doublestim,1080,1511536,952,,87,,,simpleperceptual,96,responsePerceptual,,3.2,,74.16666667,1,,,15
221,1.60484E+12,08/11/2020 13:37,1.60484E+12,-5,08/11/2020 08:37,12022,43,task-yzt9,,7648753,BLIND,2267207,,live,,,computer,Desktop or Laptop,Windows 10,Chrome 86.0.4240.111,1368x912,1351x912,,Meta-Task,29,Menta-first,survey-likert,1082,1513039,913,"{""Q0"":3}",,,,simpleperceptual,96,confidencerating,0.5,3.2,0.75,74.91666667,1,,,15
222,1.60484E+12,08/11/2020 13:37,1.60484E+12,-5,08/11/2020 08:37,12022,43,task-yzt9,,7648753,BLIND,2267207,,live,,,computer,Desktop or Laptop,Windows 10,Chrome 86.0.4240.111,1368x912,1351x912,,Meta-Task,29,Menta-first,doublestim,1089,1517837,443,,87,1,,simpleperceptual,97,responsePerceptual,,3.2,,74.91666667,1,,,15
223,1.60484E+12,08/11/2020 13:37,1.60484E+12,-5,08/11/2020 08:37,12022,43,task-yzt9,,7648753,BLIND,2267207,,live,,,computer,Desktop or Laptop,Windows 10,Chrome 86.0.4240.111,1368x912,1351x912,,Meta-Task,29,Menta-first,survey-likert,1091,1521129,2715,"{""Q0"":4}",,1,,simpleperceptual,97,confidencerating,0.666666667,3.2,0.888888889,75.80555556,1,,,15
224,1.60484E+12,08/11/2020 13:37,1.60484E+12,-5,08/11/2020 08:37,12022,43,task-yzt9,,7648753,BLIND,2267207,,live,,,computer,Desktop or Laptop,Windows 10,Chrome 86.0.4240.111,1368x912,1351x912,,Meta-Task,29,Menta-first,doublestim,1098,1526026,590,,87,1,,simpleperceptual,98,responsePerceptual,,3.2,,75.80555556,1,,,15
225,1.60484E+12,08/11/2020 13:37,1.60484E+12,-5,08/11/2020 08:37,12022,43,task-yzt9,,7648753,BLIND,2267207,,live,,,computer,Desktop or Laptop,Windows 10,Chrome 86.0.4240.111,1368x912,1351x912,,Meta-Task,29,Menta-first,survey-likert,1100,1528829,2228,"{""Q0"":5}",,1,,simpleperceptual,98,confidencerating,0.833333333,3.2,0.972222222,76.77777778,1,,,15
226,1.60484E+12,08/11/2020 13:37,1.60484E+12,-5,08/11/2020 08:37,12022,43,task-yzt9,,7648753,BLIND,2267207,,live,,,computer,Desktop or Laptop,Windows 10,Chrome 86.0.4240.111,1368x912,1351x912,,Meta-Task,29,Menta-first,doublestim,1107,1533877,693,,87,1,,simpleperceptual,99,responsePerceptual,,3.2,,76.77777778,1,,,15
227,1.60484E+12,08/11/2020 13:37,1.60484E+12,-5,08/11/2020 08:37,12022,43,task-yzt9,,7648753,BLIND,2267207,,live,,,computer,Desktop or Laptop,Windows 10,Chrome 86.0.4240.111,1368x912,1351x912,,Meta-Task,29,Menta-first,survey-likert,1109,1536497,2000,"{""Q0"":5}",,1,,simpleperceptual,99,confidencerating,0.833333333,3.2,0.972222222,77.75,1,,,15
228,1.60484E+12,08/11/2020 13:37,1.60484E+12,-5,08/11/2020 08:37,12022,43,task-yzt9,,7648753,BLIND,2267207,,live,,,computer,Desktop or Laptop,Windows 10,Chrome 86.0.4240.111,1368x912,1351x912,,Meta-Task,29,Menta-first,doublestim,1116,1541691,895,,69,1,,simpleperceptual,100,responsePerceptual,,3.2,,77.75,1,,,15
229,1.60484E+12,08/11/2020 13:37,1.60484E+12,-5,08/11/2020 08:37,12022,43,task-yzt9,,7648753,BLIND,2267207,,live,,,computer,Desktop or Laptop,Windows 10,Chrome 86.0.4240.111,1368x912,1351x912,,Meta-Task,29,Menta-first,survey-likert,1118,1543990,1719,"{""Q0"":4}",,1,,simpleperceptual,100,confidencerating,0.666666667,3.2,0.888888889,78.63888889,1,,,15
230,1.60484E+12,08/11/2020 13:37,1.60484E+12,-5,08/11/2020 08:37,12022,43,task-yzt9,,7648753,BLIND,2267207,,live,,,computer,Desktop or Laptop,Windows 10,Chrome 86.0.4240.111,1368x912,1351x912,,Meta-Task,29,Menta-first,doublestim,1125,1549754,1395,,87,1,,simpleperceptual,101,responsePerceptual,,3.2,,78.63888889,1,,,15
231,1.60484E+12,08/11/2020 13:37,1.60484E+12,-5,08/11/2020 08:37,12022,43,task-yzt9,,7648753,BLIND,2267207,,live,,,computer,Desktop or Laptop,Windows 10,Chrome 86.0.4240.111,1368x912,1351x912,,Meta-Task,29,Menta-first,survey-likert,1127,1552316,1989,"{""Q0"":4}",,1,,simpleperceptual,101,confidencerating,0.666666667,3.2,0.888888889,79.52777778,1,,,15
232,1.60484E+12,08/11/2020 13:37,1.60484E+12,-5,08/11/2020 08:37,12022,43,task-yzt9,,7648753,BLIND,2267207,,live,,,computer,Desktop or Laptop,Windows 10,Chrome 86.0.4240.111,1368x912,1351x912,,Meta-Task,29,Menta-first,doublestim,1134,1557105,502,,69,1,,simpleperceptual,102,responsePerceptual,,3.2,,79.52777778,1,,,15
233,1.60484E+12,08/11/2020 13:37,1.60484E+12,-5,08/11/2020 08:37,12022,43,task-yzt9,,7648753,BLIND,2267207,,live,,,computer,Desktop or Laptop,Windows 10,Chrome 86.0.4240.111,1368x912,1351x912,,Meta-Task,29,Menta-first,survey-likert,1136,1559224,1537,"{""Q0"":5}",,1,,simpleperceptual,102,confidencerating,0.833333333,3.2,0.972222222,80.5,1,,,15
234,1.60484E+12,08/11/2020 13:38,1.60484E+12,-5,08/11/2020 08:38,12022,43,task-yzt9,,7648753,BLIND,2267207,,live,,,computer,Desktop or Laptop,Windows 10,Chrome 86.0.4240.111,1368x912,1351x912,,Meta-Task,29,Menta-first,doublestim,1143,1564268,693,,87,1,,simpleperceptual,103,responsePerceptual,,3.2,,80.5,1,,,15
235,1.60484E+12,08/11/2020 13:38,1.60484E+12,-5,08/11/2020 08:38,12022,43,task-yzt9,,7648753,BLIND,2267207,,live,,,computer,Desktop or Laptop,Windows 10,Chrome 86.0.4240.111,1368x912,1351x912,,Meta-Task,29,Menta-first,survey-likert,1145,1566853,1985,"{""Q0"":5}",,1,,simpleperceptual,103,confidencerating,0.833333333,3.2,0.972222222,81.47222222,1,,,15
236,1.60484E+12,08/11/2020 13:38,1.60484E+12,-5,08/11/2020 08:38,12022,43,task-yzt9,,7648753,BLIND,2267207,,live,,,computer,Desktop or Laptop,Windows 10,Chrome 86.0.4240.111,1368x912,1351x912,,Meta-Task,29,Menta-first,doublestim,1152,1571976,771,,69,1,,simpleperceptual,104,responsePerceptual,,3.2,,81.47222222,1,,,15
237,1.60484E+12,08/11/2020 13:38,1.60484E+12,-5,08/11/2020 08:38,12022,43,task-yzt9,,7648753,BLIND,2267207,,live,,,computer,Desktop or Laptop,Windows 10,Chrome 86.0.4240.111,1368x912,1351x912,,Meta-Task,29,Menta-first,survey-likert,1154,1575317,2745,"{""Q0"":5}",,1,,simpleperceptual,104,confidencerating,0.833333333,3.2,0.972222222,82.44444444,1,,,15
238,1.60484E+12,08/11/2020 13:38,1.60484E+12,-5,08/11/2020 08:38,12022,43,task-yzt9,,7648753,BLIND,2267207,,live,,,computer,Desktop or Laptop,Windows 10,Chrome 86.0.4240.111,1368x912,1351x912,,Meta-Task,29,Menta-first,doublestim,1161,1581032,1379,,69,,,simpleperceptual,105,responsePerceptual,,3.2,,82.44444444,1,,,15
239,1.60484E+12,08/11/2020 13:38,1.60484E+12,-5,08/11/2020 08:38,12022,43,task-yzt9,,7648753,BLIND,2267207,,live,,,computer,Desktop or Laptop,Windows 10,Chrome 86.0.4240.111,1368x912,1351x912,,Meta-Task,29,Menta-first,survey-likert,1163,1583155,1542,"{""Q0"":3}",,,,simpleperceptual,105,confidencerating,0.5,3.2,0.75,83.19444444,1,,,15
240,1.60484E+12,08/11/2020 13:38,1.60484E+12,-5,08/11/2020 08:38,12022,43,task-yzt9,,7648753,BLIND,2267207,,live,,,computer,Desktop or Laptop,Windows 10,Chrome 86.0.4240.111,1368x912,1351x912,,Meta-Task,29,Menta-first,doublestim,1170,1589376,1904,,69,1,,simpleperceptual,106,responsePerceptual,,3.2,,83.19444444,1,,,15
241,1.60484E+12,08/11/2020 13:38,1.60484E+12,-5,08/11/2020 08:38,12022,43,task-yzt9,,7648753,BLIND,2267207,,live,,,computer,Desktop or Laptop,Windows 10,Chrome 86.0.4240.111,1368x912,1351x912,,Meta-Task,29,Menta-first,survey-likert,1172,1592160,2201,"{""Q0"":3}",,1,,simpleperceptual,106,confidencerating,0.5,3.2,0.75,83.94444444,1,,,15
242,1.60484E+12,08/11/2020 13:38,1.60484E+12,-5,08/11/2020 08:38,12022,43,task-yzt9,,7648753,BLIND,2267207,,live,,,computer,Desktop or Laptop,Windows 10,Chrome 86.0.4240.111,1368x912,1351x912,,Meta-Task,29,Menta-first,doublestim,1179,1597334,892,,69,1,,simpleperceptual,107,responsePerceptual,,3.2,,83.94444444,1,,,15
243,1.60484E+12,08/11/2020 13:38,1.60484E+12,-5,08/11/2020 08:38,12022,43,task-yzt9,,7648753,BLIND,2267207,,live,,,computer,Desktop or Laptop,Windows 10,Chrome 86.0.4240.111,1368x912,1351x912,,Meta-Task,29,Menta-first,survey-likert,1181,1599159,1249,"{""Q0"":4}",,1,,simpleperceptual,107,confidencerating,0.666666667,3.2,0.888888889,84.83333333,1,,,15
244,1.60484E+12,08/11/2020 13:38,1.60484E+12,-5,08/11/2020 08:38,12022,43,task-yzt9,,7648753,BLIND,2267207,,live,,,computer,Desktop or Laptop,Windows 10,Chrome 86.0.4240.111,1368x912,1351x912,,Meta-Task,29,Menta-first,doublestim,1188,1604319,849,,69,1,,simpleperceptual,108,responsePerceptual,,3.2,,84.83333333,1,,,15
245,1.60484E+12,08/11/2020 13:38,1.60484E+12,-5,08/11/2020 08:38,12022,43,task-yzt9,,7648753,BLIND,2267207,,live,,,computer,Desktop or Laptop,Windows 10,Chrome 86.0.4240.111,1368x912,1351x912,,Meta-Task,29,Menta-first,survey-likert,1190,1606350,1427,"{""Q0"":2}",,1,,simpleperceptual,109,confidencerating,0.333333333,3.2,0.555555556,85.38888889,1,,,15
246,1.60484E+12,08/11/2020 13:38,1.60484E+12,-5,08/11/2020 08:38,12022,43,task-yzt9,,7648753,BLIND,2267207,,live,,,computer,Desktop or Laptop,Windows 10,Chrome 86.0.4240.111,1368x912,1351x912,,Meta-Task,29,Menta-first,doublestim,1197,1612859,2195,,87,,,simpleperceptual,109,responsePerceptual,,3.2,,85.38888889,1,,,15
247,1.60484E+12,08/11/2020 13:38,1.60484E+12,-5,08/11/2020 08:38,12022,43,task-yzt9,,7648753,BLIND,2267207,,live,,,computer,Desktop or Laptop,Windows 10,Chrome 86.0.4240.111,1368x912,1351x912,,Meta-Task,29,Menta-first,survey-likert,1199,1614263,816,"{""Q0"":3}",,,,simpleperceptual,110,confidencerating,0.5,3.2,0.75,86.13888889,1,,,15
248,1.60484E+12,08/11/2020 13:38,1.60484E+12,-5,08/11/2020 08:38,12022,43,task-yzt9,,7648753,BLIND,2267207,,live,,,computer,Desktop or Laptop,Windows 10,Chrome 86.0.4240.111,1368x912,1351x912,,Meta-Task,29,Menta-first,doublestim,1206,1619106,523,,69,1,,simpleperceptual,110,responsePerceptual,,3.2,,86.13888889,1,,,15
249,1.60484E+12,08/11/2020 13:39,1.60484E+12,-5,08/11/2020 08:39,12022,43,task-yzt9,,7648753,BLIND,2267207,,live,,,computer,Desktop or Laptop,Windows 10,Chrome 86.0.4240.111,1368x912,1351x912,,Meta-Task,29,Menta-first,survey-likert,1208,1621620,1913,"{""Q0"":4}",,1,,simpleperceptual,110,confidencerating,0.666666667,3.2,0.888888889,87.02777778,1,,,15
250,1.60484E+12,08/11/2020 13:39,1.60484E+12,-5,08/11/2020 08:39,12022,43,task-yzt9,,7648753,BLIND,2267207,,live,,,computer,Desktop or Laptop,Windows 10,Chrome 86.0.4240.111,1368x912,1351x912,,Meta-Task,29,Menta-first,doublestim,1215,1626461,493,,87,,,simpleperceptual,111,responsePerceptual,,3.2,,87.02777778,1,,,15
251,1.60484E+12,08/11/2020 13:39,1.60484E+12,-5,08/11/2020 08:39,12022,43,task-yzt9,,7648753,BLIND,2267207,,live,,,computer,Desktop or Laptop,Windows 10,Chrome 86.0.4240.111,1368x912,1351x912,,Meta-Task,29,Menta-first,survey-likert,1217,1629049,2008,"{""Q0"":3}",,,,simpleperceptual,111,confidencerating,0.5,3.2,0.75,87.77777778,1,,,15
252,1.60484E+12,08/11/2020 13:39,1.60484E+12,-5,08/11/2020 08:39,12022,43,task-yzt9,,7648753,BLIND,2267207,,live,,,computer,Desktop or Laptop,Windows 10,Chrome 86.0.4240.111,1368x912,1351x912,,Meta-Task,29,Menta-first,doublestim,1224,1633888,544,,69,1,,simpleperceptual,112,responsePerceptual,,3.2,,87.77777778,1,,,15
253,1.60484E+12,08/11/2020 13:39,1.60484E+12,-5,08/11/2020 08:39,12022,43,task-yzt9,,7648753,BLIND,2267207,,live,,,computer,Desktop or Laptop,Windows 10,Chrome 86.0.4240.111,1368x912,1351x912,,Meta-Task,29,Menta-first,survey-likert,1226,1636619,2110,"{""Q0"":4}",,1,,simpleperceptual,112,confidencerating,0.666666667,3.2,0.888888889,88.66666667,1,,,15
254,1.60484E+12,08/11/2020 13:39,1.60484E+12,-5,08/11/2020 08:39,12022,43,task-yzt9,,7648753,BLIND,2267207,,live,,,computer,Desktop or Laptop,Windows 10,Chrome 86.0.4240.111,1368x912,1351x912,,Meta-Task,29,Menta-first,doublestim,1233,1641567,642,,87,1,,simpleperceptual,113,responsePerceptual,,3.2,,88.66666667,1,,,15
255,1.60484E+12,08/11/2020 13:39,1.60484E+12,-5,08/11/2020 08:39,12022,43,task-yzt9,,7648753,BLIND,2267207,,live,,,computer,Desktop or Laptop,Windows 10,Chrome 86.0.4240.111,1368x912,1351x912,,Meta-Task,29,Menta-first,survey-likert,1235,1643600,1440,"{""Q0"":4}",,1,,simpleperceptual,113,confidencerating,0.666666667,3.2,0.888888889,89.55555556,1,,,15
256,1.60484E+12,08/11/2020 13:39,1.60484E+12,-5,08/11/2020 08:39,12022,43,task-yzt9,,7648753,BLIND,2267207,,live,,,computer,Desktop or Laptop,Windows 10,Chrome 86.0.4240.111,1368x912,1351x912,,Meta-Task,29,Menta-first,doublestim,1242,1649411,1483,,87,,,simpleperceptual,114,responsePerceptual,,3.2,,89.55555556,1,,,15
257,1.60484E+12,08/11/2020 13:39,1.60484E+12,-5,08/11/2020 08:39,12022,43,task-yzt9,,7648753,BLIND,2267207,,live,,,computer,Desktop or Laptop,Windows 10,Chrome 86.0.4240.111,1368x912,1351x912,,Meta-Task,29,Menta-first,survey-likert,1244,1651299,1304,"{""Q0"":2}",,,,simpleperceptual,114,confidencerating,0.333333333,3.2,0.888888889,90.44444444,1,,,15
258,1.60484E+12,08/11/2020 13:39,1.60484E+12,-5,08/11/2020 08:39,12022,43,task-yzt9,,7648753,BLIND,2267207,,live,,,computer,Desktop or Laptop,Windows 10,Chrome 86.0.4240.111,1368x912,1351x912,,Meta-Task,29,Menta-first,doublestim,1251,1656308,709,,87,1,,simpleperceptual,115,responsePerceptual,,3.2,,90.44444444,1,,,15
259,1.60484E+12,08/11/2020 13:39,1.60484E+12,-5,08/11/2020 08:39,12022,43,task-yzt9,,7648753,BLIND,2267207,,live,,,computer,Desktop or Laptop,Windows 10,Chrome 86.0.4240.111,1368x912,1351x912,,Meta-Task,29,Menta-first,survey-likert,1253,1658676,1790,"{""Q0"":4}",,1,,simpleperceptual,115,confidencerating,0.666666667,3.2,0.888888889,91.33333333,1,,,15
260,1.60484E+12,08/11/2020 13:39,1.60484E+12,-5,08/11/2020 08:39,12022,43,task-yzt9,,7648753,BLIND,2267207,,live,,,computer,Desktop or Laptop,Windows 10,Chrome 86.0.4240.111,1368x912,1351x912,,Meta-Task,29,Menta-first,doublestim,1260,1664887,1954,,87,,,simpleperceptual,116,responsePerceptual,,3.2,,91.33333333,1,,,15
261,1.60484E+12,08/11/2020 13:39,1.60484E+12,-5,08/11/2020 08:39,12022,43,task-yzt9,,7648753,BLIND,2267207,,live,,,computer,Desktop or Laptop,Windows 10,Chrome 86.0.4240.111,1368x912,1351x912,,Meta-Task,29,Menta-first,survey-likert,1262,1666817,1357,"{""Q0"":2}",,,,simpleperceptual,116,confidencerating,0.333333333,3.2,0.888888889,92.22222222,1,,,15
262,1.60484E+12,08/11/2020 13:39,1.60484E+12,-5,08/11/2020 08:39,12022,43,task-yzt9,,7648753,BLIND,2267207,,live,,,computer,Desktop or Laptop,Windows 10,Chrome 86.0.4240.111,1368x912,1351x912,,Meta-Task,29,Menta-first,doublestim,1269,1672167,1068,,69,1,,simpleperceptual,117,responsePerceptual,,3.2,,92.22222222,1,,,15
263,1.60484E+12,08/11/2020 13:39,1.60484E+12,-5,08/11/2020 08:39,12022,43,task-yzt9,,7648753,BLIND,2267207,,live,,,computer,Desktop or Laptop,Windows 10,Chrome 86.0.4240.111,1368x912,1351x912,,Meta-Task,29,Menta-first,survey-likert,1271,1674139,1371,"{""Q0"":2}",,1,,simpleperceptual,117,confidencerating,0.333333333,3.2,0.555555556,92.77777778,1,,,15
264,1.60484E+12,08/11/2020 13:39,1.60484E+12,-5,08/11/2020 08:39,12022,43,task-yzt9,,7648753,BLIND,2267207,,live,,,computer,Desktop or Laptop,Windows 10,Chrome 86.0.4240.111,1368x912,1351x912,,Meta-Task,29,Menta-first,doublestim,1278,1679044,609,,87,1,,simpleperceptual,118,responsePerceptual,,3.2,,92.77777778,1,,,15
265,1.60484E+12,08/11/2020 13:40,1.60484E+12,-5,08/11/2020 08:40,12022,43,task-yzt9,,7648753,BLIND,2267207,,live,,,computer,Desktop or Laptop,Windows 10,Chrome 86.0.4240.111,1368x912,1351x912,,Meta-Task,29,Menta-first,survey-likert,1280,1682305,2691,"{""Q0"":5}",,1,,simpleperceptual,118,confidencerating,0.833333333,3.2,0.972222222,93.75,1,,,15
266,1.60484E+12,08/11/2020 13:40,1.60484E+12,-5,08/11/2020 08:40,12022,43,task-yzt9,,7648753,BLIND,2267207,,live,,,computer,Desktop or Laptop,Windows 10,Chrome 86.0.4240.111,1368x912,1351x912,,Meta-Task,29,Menta-first,doublestim,1287,1687478,838,,87,1,,simpleperceptual,119,responsePerceptual,,3.2,,93.75,1,,,15
267,1.60484E+12,08/11/2020 13:40,1.60484E+12,-5,08/11/2020 08:40,12022,43,task-yzt9,,7648753,BLIND,2267207,,live,,,computer,Desktop or Laptop,Windows 10,Chrome 86.0.4240.111,1368x912,1351x912,,Meta-Task,29,Menta-first,survey-likert,1289,1689982,1896,"{""Q0"":4}",,1,,simpleperceptual,119,confidencerating,0.666666667,3.2,0.888888889,94.63888889,1,,,15
268,1.60484E+12,08/11/2020 13:40,1.60484E+12,-5,08/11/2020 08:40,12022,43,task-yzt9,,7648753,BLIND,2267207,,live,,,computer,Desktop or Laptop,Windows 10,Chrome 86.0.4240.111,1368x912,1351x912,,Meta-Task,29,Menta-first,doublestim,1296,1695178,931,,69,1,,simpleperceptual,120,responsePerceptual,,3.2,,94.63888889,1,,,15
269,1.60484E+12,08/11/2020 13:40,1.60484E+12,-5,08/11/2020 08:40,12022,43,task-yzt9,,7648753,BLIND,2267207,,live,,,computer,Desktop or Laptop,Windows 10,Chrome 86.0.4240.111,1368x912,1351x912,,Meta-Task,29,Menta-first,survey-likert,1298,1697398,1630,"{""Q0"":3}",,1,,simpleperceptual,120,confidencerating,0.5,3.2,0.75,95.38888889,1,,,15
270,1.60484E+12,08/11/2020 13:40,1.60484E+12,-5,08/11/2020 08:40,12022,43,task-yzt9,,7648753,BLIND,2267207,,live,,,computer,Desktop or Laptop,Windows 10,Chrome 86.0.4240.111,1368x912,1351x912,,Meta-Task,29,Menta-first,doublestim,1305,1702450,723,,87,1,,simpleperceptual,121,responsePerceptual,,3.2,,95.38888889,1,,,15
271,1.60484E+12,08/11/2020 13:40,1.60484E+12,-5,08/11/2020 08:40,12022,43,task-yzt9,,7648753,BLIND,2267207,,live,,,computer,Desktop or Laptop,Windows 10,Chrome 86.0.4240.111,1368x912,1351x912,,Meta-Task,29,Menta-first,survey-likert,1307,1704325,1292,"{""Q0"":3}",,1,,simpleperceptual,121,confidencerating,0.5,3.2,0.75,96.13888889,1,,,15
272,1.60484E+12,08/11/2020 13:40,1.60484E+12,-5,08/11/2020 08:40,12022,43,task-yzt9,,7648753,BLIND,2267207,,live,,,computer,Desktop or Laptop,Windows 10,Chrome 86.0.4240.111,1368x912,1351x912,,Meta-Task,29,Menta-first,doublestim,1314,1709228,609,,69,1,,simpleperceptual,122,responsePerceptual,,3.2,,96.13888889,1,,,15
273,1.60484E+12,08/11/2020 13:40,1.60484E+12,-5,08/11/2020 08:40,12022,43,task-yzt9,,7648753,BLIND,2267207,,live,,,computer,Desktop or Laptop,Windows 10,Chrome 86.0.4240.111,1368x912,1351x912,,Meta-Task,29,Menta-first,survey-likert,1316,1711699,1858,"{""Q0"":4}",,1,,simpleperceptual,122,confidencerating,0.666666667,3.2,0.888888889,97.02777778,1,,,15
274,1.60484E+12,08/11/2020 13:40,1.60484E+12,-5,08/11/2020 08:40,12022,43,task-yzt9,,7648753,BLIND,2267207,,live,,,computer,Desktop or Laptop,Windows 10,Chrome 86.0.4240.111,1368x912,1351x912,,Meta-Task,29,Menta-first,doublestim,1323,1716741,750,,87,,,simpleperceptual,123,responsePerceptual,,3.2,,97.02777778,1,,,15
275,1.60484E+12,08/11/2020 13:40,1.60484E+12,-5,08/11/2020 08:40,12022,43,task-yzt9,,7648753,BLIND,2267207,,live,,,computer,Desktop or Laptop,Windows 10,Chrome 86.0.4240.111,1368x912,1351x912,,Meta-Task,29,Menta-first,survey-likert,1325,1720014,2689,"{""Q0"":2}",,,,simpleperceptual,123,confidencerating,0.333333333,3.2,0.888888889,97.91666667,1,,,15
276,1.60484E+12,08/11/2020 13:40,1.60484E+12,-5,08/11/2020 08:40,12022,43,task-yzt9,,7648753,BLIND,2267207,,live,,,computer,Desktop or Laptop,Windows 10,Chrome 86.0.4240.111,1368x912,1351x912,,Meta-Task,29,Menta-first,doublestim,1332,1725277,1010,,87,1,,simpleperceptual,124,responsePerceptual,,3.2,,97.91666667,1,,,15
277,1.60484E+12,08/11/2020 13:40,1.60484E+12,-5,08/11/2020 08:40,12022,43,task-yzt9,,7648753,BLIND,2267207,,live,,,computer,Desktop or Laptop,Windows 10,Chrome 86.0.4240.111,1368x912,1351x912,,Meta-Task,29,Menta-first,survey-likert,1334,1727918,2014,"{""Q0"":4}",,1,,simpleperceptual,124,confidencerating,0.666666667,3.2,0.888888889,98.80555556,1,,,15
278,1.60484E+12,08/11/2020 13:40,1.60484E+12,-5,08/11/2020 08:40,12022,43,task-yzt9,,7648753,BLIND,2267207,,live,,,computer,Desktop or Laptop,Windows 10,Chrome 86.0.4240.111,1368x912,1351x912,,Meta-Task,29,Menta-first,doublestim,1341,1732860,623,,69,1,,simpleperceptual,125,responsePerceptual,,3.2,,98.80555556,1,,,15
279,1.60484E+12,08/11/2020 13:40,1.60484E+12,-5,08/11/2020 08:40,12022,43,task-yzt9,,7648753,BLIND,2267207,,live,,,computer,Desktop or Laptop,Windows 10,Chrome 86.0.4240.111,1368x912,1351x912,,Meta-Task,29,Menta-first,survey-likert,1343,1736915,3472,"{""Q0"":4}",,1,,simpleperceptual,125,confidencerating,0.666666667,3.2,0.888888889,99.69444444,1,,,15
280,1.60484E+12,08/11/2020 13:41,1.60484E+12,-5,08/11/2020 08:41,12022,43,task-yzt9,,7648753,BLIND,2267207,,live,,,computer,Desktop or Laptop,Windows 10,Chrome 86.0.4240.111,1368x912,1351x912,,Meta-Task,29,Menta-first,doublestim,1350,1741691,399,,87,1,,simpleperceptual,126,responsePerceptual,,3.2,,99.69444444,1,,,15
281,1.60484E+12,08/11/2020 13:41,1.60484E+12,-5,08/11/2020 08:41,12022,43,task-yzt9,,7648753,BLIND,2267207,,live,,,computer,Desktop or Laptop,Windows 10,Chrome 86.0.4240.111,1368x912,1351x912,,Meta-Task,29,Menta-first,survey-likert,1352,1744159,1888,"{""Q0"":5}",,1,,simpleperceptual,126,confidencerating,0.833333333,3.2,0.972222222,100.6666667,1,,,15
282,1.60484E+12,08/11/2020 13:41,1.60484E+12,-5,08/11/2020 08:41,12022,43,task-yzt9,,7648753,BLIND,2267207,,live,,,computer,Desktop or Laptop,Windows 10,Chrome 86.0.4240.111,1368x912,1351x912,,Meta-Task,29,Menta-first,doublestim,1360,1784499,846,,87,1,,simpleperceptual,127,responsePerceptual,,3.2,,100.6666667,1,,,15
283,1.60484E+12,08/11/2020 13:41,1.60484E+12,-5,08/11/2020 08:41,12022,43,task-yzt9,,7648753,BLIND,2267207,,live,,,computer,Desktop or Laptop,Windows 10,Chrome 86.0.4240.111,1368x912,1351x912,,Meta-Task,29,Menta-first,survey-likert,1362,1788461,3351,"{""Q0"":6}",,1,,simpleperceptual,127,confidencerating,1,3.2,1,101.6666667,1,,,15
284,1.60484E+12,08/11/2020 13:41,1.60484E+12,-5,08/11/2020 08:41,12022,43,task-yzt9,,7648753,BLIND,2267207,,live,,,computer,Desktop or Laptop,Windows 10,Chrome 86.0.4240.111,1368x912,1351x912,,Meta-Task,29,Menta-first,doublestim,1369,1793223,412,,87,1,,simpleperceptual,128,responsePerceptual,,3.2,,101.6666667,1,,,15
285,1.60484E+12,08/11/2020 13:41,1.60484E+12,-5,08/11/2020 08:41,12022,43,task-yzt9,,7648753,BLIND,2267207,,live,,,computer,Desktop or Laptop,Windows 10,Chrome 86.0.4240.111,1368x912,1351x912,,Meta-Task,29,Menta-first,survey-likert,1371,1796017,2166,"{""Q0"":5}",,1,,simpleperceptual,128,confidencerating,0.833333333,3.2,0.972222222,102.6388889,1,,,15
286,1.60484E+12,08/11/2020 13:42,1.60484E+12,-5,08/11/2020 08:42,12022,43,task-yzt9,,7648753,BLIND,2267207,,live,,,computer,Desktop or Laptop,Windows 10,Chrome 86.0.4240.111,1368x912,1351x912,,Meta-Task,29,Menta-first,doublestim,1378,1801051,767,,69,1,,simpleperceptual,129,responsePerceptual,,3.2,,102.6388889,1,,,15
287,1.60484E+12,08/11/2020 13:42,1.60484E+12,-5,08/11/2020 08:42,12022,43,task-yzt9,,7648753,BLIND,2267207,,live,,,computer,Desktop or Laptop,Windows 10,Chrome 86.0.4240.111,1368x912,1351x912,,Meta-Task,29,Menta-first,survey-likert,1380,1803539,1906,"{""Q0"":4}",,1,,simpleperceptual,130,confidencerating,0.666666667,3.2,0.888888889,103.5277778,1,,,15
288,1.60484E+12,08/11/2020 13:42,1.60484E+12,-5,08/11/2020 08:42,12022,43,task-yzt9,,7648753,BLIND,2267207,,live,,,computer,Desktop or Laptop,Windows 10,Chrome 86.0.4240.111,1368x912,1351x912,,Meta-Task,29,Menta-first,doublestim,1387,1808360,430,,87,,,simpleperceptual,130,responsePerceptual,,3.2,,103.5277778,1,,,15
289,1.60484E+12,08/11/2020 13:42,1.60484E+12,-5,08/11/2020 08:42,12022,43,task-yzt9,,7648753,BLIND,2267207,,live,,,computer,Desktop or Laptop,Windows 10,Chrome 86.0.4240.111,1368x912,1351x912,,Meta-Task,29,Menta-first,survey-likert,1389,1810998,2050,"{""Q0"":4}",,,,simpleperceptual,130,confidencerating,0.666666667,3.2,0.555555556,104.0833333,1,,,15
290,1.60484E+12,08/11/2020 13:42,1.60484E+12,-5,08/11/2020 08:42,12022,43,task-yzt9,,7648753,BLIND,2267207,,live,,,computer,Desktop or Laptop,Windows 10,Chrome 86.0.4240.111,1368x912,1351x912,,Meta-Task,29,Menta-first,doublestim,1396,1816225,905,,69,1,,simpleperceptual,131,responsePerceptual,,3.2,,104.0833333,1,,,15
291,1.60484E+12,08/11/2020 13:42,1.60484E+12,-5,08/11/2020 08:42,12022,43,task-yzt9,,7648753,BLIND,2267207,,live,,,computer,Desktop or Laptop,Windows 10,Chrome 86.0.4240.111,1368x912,1351x912,,Meta-Task,29,Menta-first,survey-likert,1398,1819052,2211,"{""Q0"":5}",,1,,simpleperceptual,131,confidencerating,0.833333333,3.2,0.972222222,105.0555556,1,,,15
292,1.60484E+12,08/11/2020 13:42,1.60484E+12,-5,08/11/2020 08:42,12022,43,task-yzt9,,7648753,BLIND,2267207,,live,,,computer,Desktop or Laptop,Windows 10,Chrome 86.0.4240.111,1368x912,1351x912,,Meta-Task,29,Menta-first,doublestim,1405,1823727,383,,87,1,,simpleperceptual,132,responsePerceptual,,3.2,,105.0555556,1,,,15
293,1.60484E+12,08/11/2020 13:42,1.60484E+12,-5,08/11/2020 08:42,12022,43,task-yzt9,,7648753,BLIND,2267207,,live,,,computer,Desktop or Laptop,Windows 10,Chrome 86.0.4240.111,1368x912,1351x912,,Meta-Task,29,Menta-first,survey-likert,1407,1826644,2354,"{""Q0"":5}",,1,,simpleperceptual,132,confidencerating,0.833333333,3.2,0.972222222,106.0277778,1,,,15
294,1.60484E+12,08/11/2020 13:42,1.60484E+12,-5,08/11/2020 08:42,12022,43,task-yzt9,,7648753,BLIND,2267207,,live,,,computer,Desktop or Laptop,Windows 10,Chrome 86.0.4240.111,1368x912,1351x912,,Meta-Task,29,Menta-first,doublestim,1414,1831769,832,,69,1,,simpleperceptual,133,responsePerceptual,,3.2,,106.0277778,1,,,15
295,1.60484E+12,08/11/2020 13:42,1.60484E+12,-5,08/11/2020 08:42,12022,43,task-yzt9,,7648753,BLIND,2267207,,live,,,computer,Desktop or Laptop,Windows 10,Chrome 86.0.4240.111,1368x912,1351x912,,Meta-Task,29,Menta-first,survey-likert,1416,1833542,1159,"{""Q0"":3}",,1,,simpleperceptual,134,confidencerating,0.5,3.2,0.75,106.7777778,1,,,15
296,1.60484E+12,08/11/2020 13:42,1.60484E+12,-5,08/11/2020 08:42,12022,43,task-yzt9,,7648753,BLIND,2267207,,live,,,computer,Desktop or Laptop,Windows 10,Chrome 86.0.4240.111,1368x912,1351x912,,Meta-Task,29,Menta-first,doublestim,1423,1838322,393,,87,1,,simpleperceptual,134,responsePerceptual,,3.2,,106.7777778,1,,,15
297,1.60484E+12,08/11/2020 13:42,1.60484E+12,-5,08/11/2020 08:42,12022,43,task-yzt9,,7648753,BLIND,2267207,,live,,,computer,Desktop or Laptop,Windows 10,Chrome 86.0.4240.111,1368x912,1351x912,,Meta-Task,29,Menta-first,survey-likert,1425,1841869,2953,"{""Q0"":4}",,1,,simpleperceptual,134,confidencerating,0.666666667,3.2,0.888888889,107.6666667,1,,,15
298,1.60484E+12,08/11/2020 13:42,1.60484E+12,-5,08/11/2020 08:42,12022,43,task-yzt9,,7648753,BLIND,2267207,,live,,,computer,Desktop or Laptop,Windows 10,Chrome 86.0.4240.111,1368x912,1351x912,,Meta-Task,29,Menta-first,doublestim,1432,1846870,689,,69,1,,simpleperceptual,135,responsePerceptual,,3.2,,107.6666667,1,,,15
299,1.60484E+12,08/11/2020 13:42,1.60484E+12,-5,08/11/2020 08:42,12022,43,task-yzt9,,7648753,BLIND,2267207,,live,,,computer,Desktop or Laptop,Windows 10,Chrome 86.0.4240.111,1368x912,1351x912,,Meta-Task,29,Menta-first,survey-likert,1434,1850145,2692,"{""Q0"":5}",,1,,simpleperceptual,135,confidencerating,0.833333333,3.2,0.972222222,108.6388889,1,,,15
300,1.60484E+12,08/11/2020 13:42,1.60484E+12,-5,08/11/2020 08:42,12022,43,task-yzt9,,7648753,BLIND,2267207,,live,,,computer,Desktop or Laptop,Windows 10,Chrome 86.0.4240.111,1368x912,1351x912,,Meta-Task,29,Menta-first,doublestim,1441,1856651,2193,,69,1,,simpleperceptual,136,responsePerceptual,,3.2,,108.6388889,1,,,15
301,1.60484E+12,08/11/2020 13:42,1.60484E+12,-5,08/11/2020 08:42,12022,43,task-yzt9,,7648753,BLIND,2267207,,live,,,computer,Desktop or Laptop,Windows 10,Chrome 86.0.4240.111,1368x912,1351x912,,Meta-Task,29,Menta-first,survey-likert,1443,1859248,2016,"{""Q0"":2}",,1,,simpleperceptual,136,confidencerating,0.333333333,3.2,0.555555556,109.1944444,1,,,15
302,1.60484E+12,08/11/2020 13:43,1.60484E+12,-5,08/11/2020 08:43,12022,43,task-yzt9,,7648753,BLIND,2267207,,live,,,computer,Desktop or Laptop,Windows 10,Chrome 86.0.4240.111,1368x912,1351x912,,Meta-Task,29,Menta-first,doublestim,1450,1864359,836,,87,1,,simpleperceptual,137,responsePerceptual,,3.2,,109.1944444,1,,,15
