Event Index,UTC Timestamp,UTC Date,Local Timestamp,Local Timezone,Local Date,Experiment ID,Experiment Version,Tree Node Key,Repeat Key,Schedule ID,Participant Public ID,Participant Private ID,Participant Starting Group,Participant Status,Participant Completion Code,Participant External Session ID,Participant Device Type,Participant Device,Participant OS,Participant Browser,Participant Monitor Size,Participant Viewport Size,Checkpoint,Task Name,Task Version,randomiser-oh6h,trial_type,trial_index_global,time_elapsed,Reactiontime,responses,key_press,correct,current_trial_difficuly,Task_type,Trial_real_experiment,label,confidence_rating,numDots,quadraticscore,earnings,difficulty_staircase_use,numDots_average,NumDots_use,reversals_staircase
1,1.60E+12,08/11/2020 12:57,1.60E+12,1,08/11/2020 13:57,12022,43,task-pf6t,,7648610,BLIND,2267201,,live,,,computer,Desktop or Laptop,Windows 7,Chrome 86.0.4240.183,1366x768,964x549,,Meta-Task,29,Meta-first,doublestim,9,44410,697,,87,,,practice,,responsePerceptual_practice,,4.4,,0,1,,5,0
2,1.60E+12,08/11/2020 12:58,1.60E+12,1,08/11/2020 13:58,12022,43,task-pf6t,,7648610,BLIND,2267201,,live,,,computer,Desktop or Laptop,Windows 7,Chrome 86.0.4240.183,1366x768,964x549,,Meta-Task,29,Meta-first,doublestim,17,48465,117,,87,1,,practice,,responsePerceptual_practice,,4.8,,0,1,,5,1
3,1.60E+12,08/11/2020 12:58,1.60E+12,1,08/11/2020 13:58,12022,43,task-pf6t,,7648610,BLIND,2267201,,live,,,computer,Desktop or Laptop,Windows 7,Chrome 86.0.4240.183,1366x768,964x549,,Meta-Task,29,Meta-first,doublestim,25,57265,4877,,87,1,,practice,,responsePerceptual_practice,,4.8,,0,1,,4.8,1
4,1.60E+12,08/11/2020 12:58,1.60E+12,1,08/11/2020 13:58,12022,43,task-pf6t,,7648610,BLIND,2267201,,live,,,computer,Desktop or Laptop,Windows 7,Chrome 86.0.4240.183,1366x768,964x549,,Meta-Task,29,Meta-first,doublestim,33,62233,1048,,69,1,,practice,,responsePerceptual_practice,,4.4,,0,1,,4.4,2
5,1.60E+12,08/11/2020 12:58,1.60E+12,1,08/11/2020 13:58,12022,43,task-pf6t,,7648610,BLIND,2267201,,live,,,computer,Desktop or Laptop,Windows 7,Chrome 86.0.4240.183,1366x768,964x549,,Meta-Task,29,Meta-first,doublestim,41,67763,1597,,87,1,,practice,,responsePerceptual_practice,,4.4,,0,1,,4.4,2
6,1.60E+12,08/11/2020 12:58,1.60E+12,1,08/11/2020 13:58,12022,43,task-pf6t,,7648610,BLIND,2267201,,live,,,computer,Desktop or Laptop,Windows 7,Chrome 86.0.4240.183,1366x768,964x549,,Meta-Task,29,Meta-first,doublestim,49,72403,710,,87,,,practice,,responsePerceptual_practice,,4,,0,1,,4,2
7,1.60E+12,08/11/2020 12:58,1.60E+12,1,08/11/2020 13:58,12022,43,task-pf6t,,7648610,BLIND,2267201,,live,,,computer,Desktop or Laptop,Windows 7,Chrome 86.0.4240.183,1366x768,964x549,,Meta-Task,29,Meta-first,doublestim,57,76443,112,,69,1,,practice,,responsePerceptual_practice,,4.2,,0,1,,4.2,3
8,1.60E+12,08/11/2020 12:58,1.60E+12,1,08/11/2020 13:58,12022,43,task-pf6t,,7648610,BLIND,2267201,,live,,,computer,Desktop or Laptop,Windows 7,Chrome 86.0.4240.183,1366x768,964x549,,Meta-Task,29,Meta-first,doublestim,65,80954,592,,87,,,practice,,responsePerceptual_practice,,4.2,,0,1,,4.2,3
9,1.60E+12,08/11/2020 12:58,1.60E+12,1,08/11/2020 13:58,12022,43,task-pf6t,,7648610,BLIND,2267201,,live,,,computer,Desktop or Laptop,Windows 7,Chrome 86.0.4240.183,1366x768,964x549,,Meta-Task,29,Meta-first,doublestim,73,85322,452,,87,1,,practice,,responsePerceptual_practice,,4.4,,0,1,,4.4,3
10,1.60E+12,08/11/2020 12:58,1.60E+12,1,08/11/2020 13:58,12022,43,task-pf6t,,7648610,BLIND,2267201,,live,,,computer,Desktop or Laptop,Windows 7,Chrome 86.0.4240.183,1366x768,964x549,,Meta-Task,29,Meta-first,doublestim,81,89818,575,,87,,,practice,,responsePerceptual_practice,,4.4,,0,1,,4.4,3
11,1.60E+12,08/11/2020 12:58,1.60E+12,1,08/11/2020 13:58,12022,43,task-pf6t,,7648610,BLIND,2267201,,live,,,computer,Desktop or Laptop,Windows 7,Chrome 86.0.4240.183,1366x768,964x549,,Meta-Task,29,Meta-first,doublestim,89,93970,229,,87,1,,practice,,responsePerceptual_practice,,4.6,,0,1,,4.6,3
12,1.60E+12,08/11/2020 12:58,1.60E+12,1,08/11/2020 13:58,12022,43,task-pf6t,,7648610,BLIND,2267201,,live,,,computer,Desktop or Laptop,Windows 7,Chrome 86.0.4240.183,1366x768,964x549,,Meta-Task,29,Meta-first,doublestim,97,97906,15,,69,1,,practice,,responsePerceptual_practice,,4.6,,0,1,,4.6,3
13,1.60E+12,08/11/2020 12:58,1.60E+12,1,08/11/2020 13:58,12022,43,task-pf6t,,7648610,BLIND,2267201,,live,,,computer,Desktop or Laptop,Windows 7,Chrome 86.0.4240.183,1366x768,964x549,,Meta-Task,29,Meta-first,doublestim,105,102577,710,,87,,,practice,,responsePerceptual_practice,,4.5,,0,1,,4.5,4
14,1.60E+12,08/11/2020 12:58,1.60E+12,1,08/11/2020 13:58,12022,43,task-pf6t,,7648610,BLIND,2267201,,live,,,computer,Desktop or Laptop,Windows 7,Chrome 86.0.4240.183,1366x768,964x549,,Meta-Task,29,Meta-first,doublestim,113,106682,186,,69,1,,practice,,responsePerceptual_practice,,4.6,,0,1,,4.6,5
15,1.60E+12,08/11/2020 12:59,1.60E+12,1,08/11/2020 13:59,12022,43,task-pf6t,,7648610,BLIND,2267201,,live,,,computer,Desktop or Laptop,Windows 7,Chrome 86.0.4240.183,1366x768,964x549,,Meta-Task,29,Meta-first,doublestim,121,111465,866,,87,1,,practice,,responsePerceptual_practice,,4.6,,0,1,,4.6,5
16,1.60E+12,08/11/2020 12:59,1.60E+12,1,08/11/2020 13:59,12022,43,task-pf6t,,7648610,BLIND,2267201,,live,,,computer,Desktop or Laptop,Windows 7,Chrome 86.0.4240.183,1366x768,964x549,,Meta-Task,29,Meta-first,doublestim,129,115394,11,,69,1,,practice,,responsePerceptual_practice,,4.5,,0,1,,4.5,6
17,1.60E+12,08/11/2020 12:59,1.60E+12,1,08/11/2020 13:59,12022,43,task-pf6t,,7648610,BLIND,2267201,,live,,,computer,Desktop or Laptop,Windows 7,Chrome 86.0.4240.183,1366x768,964x549,,Meta-Task,29,Meta-first,doublestim,137,120041,693,,87,1,,practice,,responsePerceptual_practice,,4.5,,0,1,,4.5,6
18,1.60E+12,08/11/2020 12:59,1.60E+12,1,08/11/2020 13:59,12022,43,task-pf6t,,7648610,BLIND,2267201,,live,,,computer,Desktop or Laptop,Windows 7,Chrome 86.0.4240.183,1366x768,964x549,,Meta-Task,29,Meta-first,doublestim,145,124146,187,,87,1,,practice,,responsePerceptual_practice,,4.4,,0,1,,4.4,6
19,1.60E+12,08/11/2020 12:59,1.60E+12,1,08/11/2020 13:59,12022,43,task-pf6t,,7648610,BLIND,2267201,,live,,,computer,Desktop or Laptop,Windows 7,Chrome 86.0.4240.183,1366x768,964x549,,Meta-Task,29,Meta-first,doublestim,153,128282,216,,69,1,,practice,,responsePerceptual_practice,,4.4,,0,1,,4.4,6
20,1.60E+12,08/11/2020 12:59,1.60E+12,1,08/11/2020 13:59,12022,43,task-pf6t,,7648610,BLIND,2267201,,live,,,computer,Desktop or Laptop,Windows 7,Chrome 86.0.4240.183,1366x768,964x549,,Meta-Task,29,Meta-first,doublestim,161,132730,527,,87,1,,practice,,responsePerceptual_practice,,4.3,,0,1,,4.3,6
21,1.60E+12,08/11/2020 12:59,1.60E+12,1,08/11/2020 13:59,12022,43,task-pf6t,,7648610,BLIND,2267201,,live,,,computer,Desktop or Laptop,Windows 7,Chrome 86.0.4240.183,1366x768,964x549,,Meta-Task,29,Meta-first,doublestim,169,140450,3803,,69,1,,practice,,responsePerceptual_practice,,4.3,,0,1,,4.3,6
22,1.60E+12,08/11/2020 12:59,1.60E+12,1,08/11/2020 13:59,12022,43,task-pf6t,,7648610,BLIND,2267201,,live,,,computer,Desktop or Laptop,Windows 7,Chrome 86.0.4240.183,1366x768,964x549,,Meta-Task,29,Meta-first,doublestim,177,144578,201,,87,1,,practice,,responsePerceptual_practice,,4.2,,0,1,,4.2,6
23,1.60E+12,08/11/2020 12:59,1.60E+12,1,08/11/2020 13:59,12022,43,task-pf6t,,7648610,BLIND,2267201,,live,,,computer,Desktop or Laptop,Windows 7,Chrome 86.0.4240.183,1366x768,964x549,,Meta-Task,29,Meta-first,doublestim,185,148546,40,,87,1,,practice,,responsePerceptual_practice,,4.2,,0,1,,4.2,6
24,1.60E+12,08/11/2020 12:59,1.60E+12,1,08/11/2020 13:59,12022,43,task-pf6t,,7648610,BLIND,2267201,,live,,,computer,Desktop or Laptop,Windows 7,Chrome 86.0.4240.183,1366x768,964x549,,Meta-Task,29,Meta-first,doublestim,193,152633,157,,87,1,,practice,,responsePerceptual_practice,,4.1,,0,1,,4.1,6
25,1.60E+12,08/11/2020 12:59,1.60E+12,1,08/11/2020 13:59,12022,43,task-pf6t,,7648610,BLIND,2267201,,live,,,computer,Desktop or Laptop,Windows 7,Chrome 86.0.4240.183,1366x768,964x549,,Meta-Task,29,Meta-first,doublestim,201,156625,63,,87,1,,practice,,responsePerceptual_practice,,4.1,,0,1,,4.1,6
26,1.60E+12,08/11/2020 12:59,1.60E+12,1,08/11/2020 13:59,12022,43,task-pf6t,,7648610,BLIND,2267201,,live,,,computer,Desktop or Laptop,Windows 7,Chrome 86.0.4240.183,1366x768,964x549,,Meta-Task,29,Meta-first,doublestim,209,161233,682,,69,1,,practice,,responsePerceptual_practice,,4,,0,1,,4,6
27,1.60E+12,08/11/2020 13:00,1.60E+12,1,08/11/2020 14:00,12022,43,task-pf6t,,7648610,BLIND,2267201,,live,,,computer,Desktop or Laptop,Windows 7,Chrome 86.0.4240.183,1366x768,964x549,,Meta-Task,29,Meta-first,,,,,,,,,,,,,,,,,,,
28,1.60E+12,08/11/2020 13:00,1.60E+12,1,08/11/2020 14:00,12022,43,task-pf6t,,7648610,BLIND,2267201,,live,,,computer,Desktop or Laptop,Windows 7,Chrome 86.0.4240.183,1366x768,964x549,,Meta-Task,29,Meta-first,survey-likert,213,192892,14567,"{""Q0"":6,""Q1"":2}",,,,practice,,confidprac,,4,,0,1,,,6
29,1.60E+12,08/11/2020 13:00,1.60E+12,1,08/11/2020 14:00,12022,43,task-pf6t,,7648610,BLIND,2267201,,live,,,computer,Desktop or Laptop,Windows 7,Chrome 86.0.4240.183,1366x768,964x549,,Meta-Task,29,Meta-first,survey-likert,215,205795,6772,"{""Q0"":6,""Q1"":1}",,,,practice,,confidprac,,4,,0,1,,,6
30,1.60E+12,08/11/2020 13:00,1.60E+12,1,08/11/2020 14:00,12022,43,task-pf6t,,7648610,BLIND,2267201,,live,,,computer,Desktop or Laptop,Windows 7,Chrome 86.0.4240.183,1366x768,964x549,,Meta-Task,29,Meta-first,doublestim,223,214865,2195,,87,1,,simpleperceptual,1,responsePerceptual,,4,,0,1,,,6
31,1.60E+12,08/11/2020 13:00,1.60E+12,1,08/11/2020 14:00,12022,43,task-pf6t,,7648610,BLIND,2267201,,live,,,computer,Desktop or Laptop,Windows 7,Chrome 86.0.4240.183,1366x768,964x549,,Meta-Task,29,Meta-first,survey-likert,225,217999,2605,"{""Q0"":6}",,1,,simpleperceptual,1,confidencerating,1,4,1,1,1,,,6
32,1.60E+12,08/11/2020 13:00,1.60E+12,1,08/11/2020 14:00,12022,43,task-pf6t,,7648610,BLIND,2267201,,live,,,computer,Desktop or Laptop,Windows 7,Chrome 86.0.4240.183,1366x768,964x549,,Meta-Task,29,Meta-first,doublestim,232,225681,3776,,69,,,simpleperceptual,2,responsePerceptual,,3.9,,1,1,,,6
33,1.60E+12,08/11/2020 13:01,1.60E+12,1,08/11/2020 14:01,12022,43,task-pf6t,,7648610,BLIND,2267201,,live,,,computer,Desktop or Laptop,Windows 7,Chrome 86.0.4240.183,1366x768,964x549,,Meta-Task,29,Meta-first,survey-likert,234,228292,2090,"{""Q0"":2}",,,,simpleperceptual,2,confidencerating,0.333333333,3.9,0.888888889,1.888888889,1,,,6
34,1.60E+12,08/11/2020 13:01,1.60E+12,1,08/11/2020 14:01,12022,43,task-pf6t,,7648610,BLIND,2267201,,live,,,computer,Desktop or Laptop,Windows 7,Chrome 86.0.4240.183,1366x768,964x549,,Meta-Task,29,Meta-first,doublestim,241,232432,235,,69,1,,simpleperceptual,3,responsePerceptual,,4,,1.888888889,1,,,7
35,1.60E+12,08/11/2020 13:01,1.60E+12,1,08/11/2020 14:01,12022,43,task-pf6t,,7648610,BLIND,2267201,,live,,,computer,Desktop or Laptop,Windows 7,Chrome 86.0.4240.183,1366x768,964x549,,Meta-Task,29,Meta-first,survey-likert,243,234834,1880,"{""Q0"":6}",,1,,simpleperceptual,3,confidencerating,1,4,1,2.888888889,1,,,7
36,1.60E+12,08/11/2020 13:01,1.60E+12,1,08/11/2020 14:01,12022,43,task-pf6t,,7648610,BLIND,2267201,,live,,,computer,Desktop or Laptop,Windows 7,Chrome 86.0.4240.183,1366x768,964x549,,Meta-Task,29,Meta-first,doublestim,250,238857,119,,87,1,,simpleperceptual,4,responsePerceptual,,4,,2.888888889,1,,,7
37,1.60E+12,08/11/2020 13:01,1.60E+12,1,08/11/2020 14:01,12022,43,task-pf6t,,7648610,BLIND,2267201,,live,,,computer,Desktop or Laptop,Windows 7,Chrome 86.0.4240.183,1366x768,964x549,,Meta-Task,29,Meta-first,survey-likert,252,240872,1492,"{""Q0"":6}",,1,,simpleperceptual,4,confidencerating,1,4,1,3.888888889,1,,,7
38,1.60E+12,08/11/2020 13:01,1.60E+12,1,08/11/2020 14:01,12022,43,task-pf6t,,7648610,BLIND,2267201,,live,,,computer,Desktop or Laptop,Windows 7,Chrome 86.0.4240.183,1366x768,964x549,,Meta-Task,29,Meta-first,doublestim,259,245018,240,,87,1,,simpleperceptual,5,responsePerceptual,,3.9,,3.888888889,1,,,8
39,1.60E+12,08/11/2020 13:01,1.60E+12,1,08/11/2020 14:01,12022,43,task-pf6t,,7648610,BLIND,2267201,,live,,,computer,Desktop or Laptop,Windows 7,Chrome 86.0.4240.183,1366x768,964x549,,Meta-Task,29,Meta-first,survey-likert,261,246998,1457,"{""Q0"":1}",,1,,simpleperceptual,5,confidencerating,0.166666667,3.9,0.305555556,4.194444444,1,,,8
40,1.60E+12,08/11/2020 13:01,1.60E+12,1,08/11/2020 14:01,12022,43,task-pf6t,,7648610,BLIND,2267201,,live,,,computer,Desktop or Laptop,Windows 7,Chrome 86.0.4240.183,1366x768,964x549,,Meta-Task,29,Meta-first,doublestim,268,251985,1086,,69,1,,simpleperceptual,6,responsePerceptual,,3.9,,4.194444444,1,,,8
41,1.60E+12,08/11/2020 13:01,1.60E+12,1,08/11/2020 14:01,12022,43,task-pf6t,,7648610,BLIND,2267201,,live,,,computer,Desktop or Laptop,Windows 7,Chrome 86.0.4240.183,1366x768,964x549,,Meta-Task,29,Meta-first,survey-likert,270,253886,1377,"{""Q0"":6}",,1,,simpleperceptual,6,confidencerating,1,3.9,1,5.194444444,1,,,8
42,1.60E+12,08/11/2020 13:01,1.60E+12,1,08/11/2020 14:01,12022,43,task-pf6t,,7648610,BLIND,2267201,,live,,,computer,Desktop or Laptop,Windows 7,Chrome 86.0.4240.183,1366x768,964x549,,Meta-Task,29,Meta-first,doublestim,277,258577,787,,87,1,,simpleperceptual,7,responsePerceptual,,3.8,,5.194444444,1,,,8
43,1.60E+12,08/11/2020 13:01,1.60E+12,1,08/11/2020 14:01,12022,43,task-pf6t,,7648610,BLIND,2267201,,live,,,computer,Desktop or Laptop,Windows 7,Chrome 86.0.4240.183,1366x768,964x549,,Meta-Task,29,Meta-first,survey-likert,279,260372,1270,"{""Q0"":6}",,1,,simpleperceptual,7,confidencerating,1,3.8,1,6.194444444,1,,,8
44,1.60E+12,08/11/2020 13:01,1.60E+12,1,08/11/2020 14:01,12022,43,task-pf6t,,7648610,BLIND,2267201,,live,,,computer,Desktop or Laptop,Windows 7,Chrome 86.0.4240.183,1366x768,964x549,,Meta-Task,29,Meta-first,doublestim,286,264449,174,,87,1,,simpleperceptual,8,responsePerceptual,,3.8,,6.194444444,1,,,8
45,1.60E+12,08/11/2020 13:01,1.60E+12,1,08/11/2020 14:01,12022,43,task-pf6t,,7648610,BLIND,2267201,,live,,,computer,Desktop or Laptop,Windows 7,Chrome 86.0.4240.183,1366x768,964x549,,Meta-Task,29,Meta-first,survey-likert,288,266173,1200,"{""Q0"":6}",,1,,simpleperceptual,8,confidencerating,1,3.8,1,7.194444444,1,,,8
46,1.60E+12,08/11/2020 13:01,1.60E+12,1,08/11/2020 14:01,12022,43,task-pf6t,,7648610,BLIND,2267201,,live,,,computer,Desktop or Laptop,Windows 7,Chrome 86.0.4240.183,1366x768,964x549,,Meta-Task,29,Meta-first,doublestim,295,270170,93,,87,1,,simpleperceptual,9,responsePerceptual,,3.7,,7.194444444,1,,,8
47,1.60E+12,08/11/2020 13:01,1.60E+12,1,08/11/2020 14:01,12022,43,task-pf6t,,7648610,BLIND,2267201,,live,,,computer,Desktop or Laptop,Windows 7,Chrome 86.0.4240.183,1366x768,964x549,,Meta-Task,29,Meta-first,survey-likert,297,271930,1237,"{""Q0"":6}",,1,,simpleperceptual,9,confidencerating,1,3.7,1,8.194444444,1,,,8
48,1.60E+12,08/11/2020 13:01,1.60E+12,1,08/11/2020 14:01,12022,43,task-pf6t,,7648610,BLIND,2267201,,live,,,computer,Desktop or Laptop,Windows 7,Chrome 86.0.4240.183,1366x768,964x549,,Meta-Task,29,Meta-first,doublestim,304,275849,14,,69,1,,simpleperceptual,10,responsePerceptual,,3.7,,8.194444444,1,,,8
49,1.60E+12,08/11/2020 13:01,1.60E+12,1,08/11/2020 14:01,12022,43,task-pf6t,,7648610,BLIND,2267201,,live,,,computer,Desktop or Laptop,Windows 7,Chrome 86.0.4240.183,1366x768,964x549,,Meta-Task,29,Meta-first,survey-likert,306,277583,1210,"{""Q0"":1}",,1,,simpleperceptual,10,confidencerating,0.166666667,3.7,0.305555556,8.5,1,,,8
50,1.60E+12,08/11/2020 13:01,1.60E+12,1,08/11/2020 14:01,12022,43,task-pf6t,,7648610,BLIND,2267201,,live,,,computer,Desktop or Laptop,Windows 7,Chrome 86.0.4240.183,1366x768,964x549,,Meta-Task,29,Meta-first,doublestim,313,281753,266,,69,1,,simpleperceptual,11,responsePerceptual,,3.6,,8.5,1,,,8
51,1.60E+12,08/11/2020 13:01,1.60E+12,1,08/11/2020 14:01,12022,43,task-pf6t,,7648610,BLIND,2267201,,live,,,computer,Desktop or Laptop,Windows 7,Chrome 86.0.4240.183,1366x768,964x549,,Meta-Task,29,Meta-first,survey-likert,315,283227,949,"{""Q0"":6}",,1,,simpleperceptual,11,confidencerating,1,3.6,1,9.5,1,,,8
52,1.60E+12,08/11/2020 13:02,1.60E+12,1,08/11/2020 14:02,12022,43,task-pf6t,,7648610,BLIND,2267201,,live,,,computer,Desktop or Laptop,Windows 7,Chrome 86.0.4240.183,1366x768,964x549,,Meta-Task,29,Meta-first,doublestim,322,287832,701,,87,1,,simpleperceptual,12,responsePerceptual,,3.6,,9.5,1,,,8
53,1.60E+12,08/11/2020 13:02,1.60E+12,1,08/11/2020 14:02,12022,43,task-pf6t,,7648610,BLIND,2267201,,live,,,computer,Desktop or Laptop,Windows 7,Chrome 86.0.4240.183,1366x768,964x549,,Meta-Task,29,Meta-first,survey-likert,324,289792,1438,"{""Q0"":6}",,1,,simpleperceptual,12,confidencerating,1,3.6,1,10.5,1,,,8
54,1.60E+12,08/11/2020 13:02,1.60E+12,1,08/11/2020 14:02,12022,43,task-pf6t,,7648610,BLIND,2267201,,live,,,computer,Desktop or Laptop,Windows 7,Chrome 86.0.4240.183,1366x768,964x549,,Meta-Task,29,Meta-first,doublestim,331,294160,462,,87,1,,simpleperceptual,13,responsePerceptual,,3.5,,10.5,1,,,8
55,1.60E+12,08/11/2020 13:02,1.60E+12,1,08/11/2020 14:02,12022,43,task-pf6t,,7648610,BLIND,2267201,,live,,,computer,Desktop or Laptop,Windows 7,Chrome 86.0.4240.183,1366x768,964x549,,Meta-Task,29,Meta-first,survey-likert,333,295650,966,"{""Q0"":6}",,1,,simpleperceptual,13,confidencerating,1,3.5,1,11.5,1,,,8
56,1.60E+12,08/11/2020 13:02,1.60E+12,1,08/11/2020 14:02,12022,43,task-pf6t,,7648610,BLIND,2267201,,live,,,computer,Desktop or Laptop,Windows 7,Chrome 86.0.4240.183,1366x768,964x549,,Meta-Task,29,Meta-first,doublestim,340,299912,358,,87,1,,simpleperceptual,14,responsePerceptual,,3.5,,11.5,1,,,8
57,1.60E+12,08/11/2020 13:02,1.60E+12,1,08/11/2020 14:02,12022,43,task-pf6t,,7648610,BLIND,2267201,,live,,,computer,Desktop or Laptop,Windows 7,Chrome 86.0.4240.183,1366x768,964x549,,Meta-Task,29,Meta-first,survey-likert,342,301726,1290,"{""Q0"":6}",,1,,simpleperceptual,14,confidencerating,1,3.5,1,12.5,1,,,8
58,1.60E+12,08/11/2020 13:02,1.60E+12,1,08/11/2020 14:02,12022,43,task-pf6t,,7648610,BLIND,2267201,,live,,,computer,Desktop or Laptop,Windows 7,Chrome 86.0.4240.183,1366x768,964x549,,Meta-Task,29,Meta-first,doublestim,349,305937,306,,87,1,,simpleperceptual,15,responsePerceptual,,3.4,,12.5,1,,,8
59,1.60E+12,08/11/2020 13:02,1.60E+12,1,08/11/2020 14:02,12022,43,task-pf6t,,7648610,BLIND,2267201,,live,,,computer,Desktop or Laptop,Windows 7,Chrome 86.0.4240.183,1366x768,964x549,,Meta-Task,29,Meta-first,survey-likert,351,307703,1243,"{""Q0"":1}",,1,,simpleperceptual,15,confidencerating,0.166666667,3.4,0.305555556,12.80555556,1,,,8
60,1.60E+12,08/11/2020 13:02,1.60E+12,1,08/11/2020 14:02,12022,43,task-pf6t,,7648610,BLIND,2267201,,live,,,computer,Desktop or Laptop,Windows 7,Chrome 86.0.4240.183,1366x768,964x549,,Meta-Task,29,Meta-first,doublestim,358,311801,194,,69,1,,simpleperceptual,16,responsePerceptual,,3.4,,12.80555556,1,,,8
61,1.60E+12,08/11/2020 13:02,1.60E+12,1,08/11/2020 14:02,12022,43,task-pf6t,,7648610,BLIND,2267201,,live,,,computer,Desktop or Laptop,Windows 7,Chrome 86.0.4240.183,1366x768,964x549,,Meta-Task,29,Meta-first,survey-likert,360,313929,1605,"{""Q0"":1}",,1,,simpleperceptual,16,confidencerating,0.166666667,3.4,0.305555556,13.11111111,1,,,8
62,1.60E+12,08/11/2020 13:02,1.60E+12,1,08/11/2020 14:02,12022,43,task-pf6t,,7648610,BLIND,2267201,,live,,,computer,Desktop or Laptop,Windows 7,Chrome 86.0.4240.183,1366x768,964x549,,Meta-Task,29,Meta-first,doublestim,367,318328,496,,87,,,simpleperceptual,17,responsePerceptual,,3.3,,13.11111111,1,,,8
63,1.60E+12,08/11/2020 13:02,1.60E+12,1,08/11/2020 14:02,12022,43,task-pf6t,,7648610,BLIND,2267201,,live,,,computer,Desktop or Laptop,Windows 7,Chrome 86.0.4240.183,1366x768,964x549,,Meta-Task,29,Meta-first,survey-likert,369,320187,1333,"{""Q0"":1}",,,,simpleperceptual,17,confidencerating,0.166666667,3.3,0.972222222,14.08333333,1,,,8
64,1.60E+12,08/11/2020 13:02,1.60E+12,1,08/11/2020 14:02,12022,43,task-pf6t,,7648610,BLIND,2267201,,live,,,computer,Desktop or Laptop,Windows 7,Chrome 86.0.4240.183,1366x768,964x549,,Meta-Task,29,Meta-first,doublestim,376,324345,256,,87,1,,simpleperceptual,18,responsePerceptual,,3.4,,14.08333333,1,,,9
65,1.60E+12,08/11/2020 13:02,1.60E+12,1,08/11/2020 14:02,12022,43,task-pf6t,,7648610,BLIND,2267201,,live,,,computer,Desktop or Laptop,Windows 7,Chrome 86.0.4240.183,1366x768,964x549,,Meta-Task,29,Meta-first,survey-likert,378,326098,1227,"{""Q0"":6}",,1,,simpleperceptual,18,confidencerating,1,3.4,1,15.08333333,1,,,9
66,1.60E+12,08/11/2020 13:02,1.60E+12,1,08/11/2020 14:02,12022,43,task-pf6t,,7648610,BLIND,2267201,,live,,,computer,Desktop or Laptop,Windows 7,Chrome 86.0.4240.183,1366x768,964x549,,Meta-Task,29,Meta-first,doublestim,385,330832,830,,87,1,,simpleperceptual,19,responsePerceptual,,3.4,,15.08333333,1,,,9
67,1.60E+12,08/11/2020 13:02,1.60E+12,1,08/11/2020 14:02,12022,43,task-pf6t,,7648610,BLIND,2267201,,live,,,computer,Desktop or Laptop,Windows 7,Chrome 86.0.4240.183,1366x768,964x549,,Meta-Task,29,Meta-first,survey-likert,387,332504,1150,"{""Q0"":1}",,1,,simpleperceptual,19,confidencerating,0.166666667,3.4,0.305555556,15.38888889,1,,,9
68,1.60E+12,08/11/2020 13:02,1.60E+12,1,08/11/2020 14:02,12022,43,task-pf6t,,7648610,BLIND,2267201,,live,,,computer,Desktop or Laptop,Windows 7,Chrome 86.0.4240.183,1366x768,964x549,,Meta-Task,29,Meta-first,doublestim,394,336952,546,,87,,,simpleperceptual,20,responsePerceptual,,3.3,,15.38888889,1,,,10
69,1.60E+12,08/11/2020 13:02,1.60E+12,1,08/11/2020 14:02,12022,43,task-pf6t,,7648610,BLIND,2267201,,live,,,computer,Desktop or Laptop,Windows 7,Chrome 86.0.4240.183,1366x768,964x549,,Meta-Task,29,Meta-first,survey-likert,396,338668,1193,"{""Q0"":1}",,,,simpleperceptual,20,confidencerating,0.166666667,3.3,0.972222222,16.36111111,1,,,10
70,1.60E+12,08/11/2020 13:02,1.60E+12,1,08/11/2020 14:02,12022,43,task-pf6t,,7648610,BLIND,2267201,,live,,,computer,Desktop or Laptop,Windows 7,Chrome 86.0.4240.183,1366x768,964x549,,Meta-Task,29,Meta-first,doublestim,403,342688,115,,87,,,simpleperceptual,21,responsePerceptual,,3.4,,16.36111111,1,,,11
71,1.60E+12,08/11/2020 13:02,1.60E+12,1,08/11/2020 14:02,12022,43,task-pf6t,,7648610,BLIND,2267201,,live,,,computer,Desktop or Laptop,Windows 7,Chrome 86.0.4240.183,1366x768,964x549,,Meta-Task,29,Meta-first,survey-likert,405,344470,1258,"{""Q0"":6}",,,,simpleperceptual,21,confidencerating,1,3.4,0,16.36111111,1,,,11
72,1.60E+12,08/11/2020 13:03,1.60E+12,1,08/11/2020 14:03,12022,43,task-pf6t,,7648610,BLIND,2267201,,live,,,computer,Desktop or Laptop,Windows 7,Chrome 86.0.4240.183,1366x768,964x549,,Meta-Task,29,Meta-first,doublestim,412,349007,634,,69,1,,simpleperceptual,22,responsePerceptual,,3.5,,16.36111111,1,,,11
73,1.60E+12,08/11/2020 13:03,1.60E+12,1,08/11/2020 14:03,12022,43,task-pf6t,,7648610,BLIND,2267201,,live,,,computer,Desktop or Laptop,Windows 7,Chrome 86.0.4240.183,1366x768,964x549,,Meta-Task,29,Meta-first,survey-likert,414,350946,1416,"{""Q0"":1}",,1,,simpleperceptual,22,confidencerating,0.166666667,3.5,0.305555556,16.66666667,1,,,11
74,1.60E+12,08/11/2020 13:03,1.60E+12,1,08/11/2020 14:03,12022,43,task-pf6t,,7648610,BLIND,2267201,,live,,,computer,Desktop or Laptop,Windows 7,Chrome 86.0.4240.183,1366x768,964x549,,Meta-Task,29,Meta-first,doublestim,421,357383,2534,,69,1,,simpleperceptual,23,responsePerceptual,,3.5,,16.66666667,1,,,11
75,1.60E+12,08/11/2020 13:03,1.60E+12,1,08/11/2020 14:03,12022,43,task-pf6t,,7648610,BLIND,2267201,,live,,,computer,Desktop or Laptop,Windows 7,Chrome 86.0.4240.183,1366x768,964x549,,Meta-Task,29,Meta-first,survey-likert,423,358957,1051,"{""Q0"":1}",,1,,simpleperceptual,23,confidencerating,0.166666667,3.5,0.305555556,16.97222222,1,,,11
76,1.60E+12,08/11/2020 13:03,1.60E+12,1,08/11/2020 14:03,12022,43,task-pf6t,,7648610,BLIND,2267201,,live,,,computer,Desktop or Laptop,Windows 7,Chrome 86.0.4240.183,1366x768,964x549,,Meta-Task,29,Meta-first,doublestim,430,363751,885,,69,1,,simpleperceptual,24,responsePerceptual,,3.4,,16.97222222,1,,,12
77,1.60E+12,08/11/2020 13:03,1.60E+12,1,08/11/2020 14:03,12022,43,task-pf6t,,7648610,BLIND,2267201,,live,,,computer,Desktop or Laptop,Windows 7,Chrome 86.0.4240.183,1366x768,964x549,,Meta-Task,29,Meta-first,survey-likert,432,365568,1292,"{""Q0"":1}",,1,,simpleperceptual,24,confidencerating,0.166666667,3.4,0.305555556,17.27777778,1,,,12
78,1.60E+12,08/11/2020 13:03,1.60E+12,1,08/11/2020 14:03,12022,43,task-pf6t,,7648610,BLIND,2267201,,live,,,computer,Desktop or Laptop,Windows 7,Chrome 86.0.4240.183,1366x768,964x549,,Meta-Task,29,Meta-first,doublestim,439,369640,168,,69,1,,simpleperceptual,25,responsePerceptual,,3.4,,17.27777778,1,,,12
79,1.60E+12,08/11/2020 13:03,1.60E+12,1,08/11/2020 14:03,12022,43,task-pf6t,,7648610,BLIND,2267201,,live,,,computer,Desktop or Laptop,Windows 7,Chrome 86.0.4240.183,1366x768,964x549,,Meta-Task,29,Meta-first,survey-likert,441,371212,1045,"{""Q0"":1}",,1,,simpleperceptual,25,confidencerating,0.166666667,3.4,0.305555556,17.58333333,1,,,12
80,1.60E+12,08/11/2020 13:03,1.60E+12,1,08/11/2020 14:03,12022,43,task-pf6t,,7648610,BLIND,2267201,,live,,,computer,Desktop or Laptop,Windows 7,Chrome 86.0.4240.183,1366x768,964x549,,Meta-Task,29,Meta-first,doublestim,448,375720,603,,87,1,,simpleperceptual,26,responsePerceptual,,3.3,,17.58333333,1,,,12
81,1.60E+12,08/11/2020 13:03,1.60E+12,1,08/11/2020 14:03,12022,43,task-pf6t,,7648610,BLIND,2267201,,live,,,computer,Desktop or Laptop,Windows 7,Chrome 86.0.4240.183,1366x768,964x549,,Meta-Task,29,Meta-first,survey-likert,450,377178,936,"{""Q0"":1}",,1,,simpleperceptual,26,confidencerating,0.166666667,3.3,0.305555556,17.88888889,1,,,12
82,1.60E+12,08/11/2020 13:03,1.60E+12,1,08/11/2020 14:03,12022,43,task-pf6t,,7648610,BLIND,2267201,,live,,,computer,Desktop or Laptop,Windows 7,Chrome 86.0.4240.183,1366x768,964x549,,Meta-Task,29,Meta-first,doublestim,457,381248,165,,69,1,,simpleperceptual,27,responsePerceptual,,3.3,,17.88888889,1,,,12
83,1.60E+12,08/11/2020 13:03,1.60E+12,1,08/11/2020 14:03,12022,43,task-pf6t,,7648610,BLIND,2267201,,live,,,computer,Desktop or Laptop,Windows 7,Chrome 86.0.4240.183,1366x768,964x549,,Meta-Task,29,Meta-first,survey-likert,459,383017,1245,"{""Q0"":6}",,1,,simpleperceptual,27,confidencerating,1,3.3,1,18.88888889,1,,,12
84,1.60E+12,08/11/2020 13:03,1.60E+12,1,08/11/2020 14:03,12022,43,task-pf6t,,7648610,BLIND,2267201,,live,,,computer,Desktop or Laptop,Windows 7,Chrome 86.0.4240.183,1366x768,964x549,,Meta-Task,29,Meta-first,doublestim,466,387135,214,,69,,,simpleperceptual,28,responsePerceptual,,3.2,,18.88888889,1,,,12
85,1.60E+12,08/11/2020 13:03,1.60E+12,1,08/11/2020 14:03,12022,43,task-pf6t,,7648610,BLIND,2267201,,live,,,computer,Desktop or Laptop,Windows 7,Chrome 86.0.4240.183,1366x768,964x549,,Meta-Task,29,Meta-first,survey-likert,468,388724,1065,"{""Q0"":1}",,,,simpleperceptual,28,confidencerating,0.166666667,3.2,0.972222222,19.86111111,1,,,12
86,1.60E+12,08/11/2020 13:03,1.60E+12,1,08/11/2020 14:03,12022,43,task-pf6t,,7648610,BLIND,2267201,,live,,,computer,Desktop or Laptop,Windows 7,Chrome 86.0.4240.183,1366x768,964x549,,Meta-Task,29,Meta-first,doublestim,475,392672,36,,69,,,simpleperceptual,29,responsePerceptual,,3.3,,19.86111111,1,,,13
87,1.60E+12,08/11/2020 13:03,1.60E+12,1,08/11/2020 14:03,12022,43,task-pf6t,,7648610,BLIND,2267201,,live,,,computer,Desktop or Laptop,Windows 7,Chrome 86.0.4240.183,1366x768,964x549,,Meta-Task,29,Meta-first,survey-likert,477,394381,1186,"{""Q0"":1}",,,,simpleperceptual,29,confidencerating,0.166666667,3.3,0.972222222,20.83333333,1,,,13
88,1.60E+12,08/11/2020 13:03,1.60E+12,1,08/11/2020 14:03,12022,43,task-pf6t,,7648610,BLIND,2267201,,live,,,computer,Desktop or Laptop,Windows 7,Chrome 86.0.4240.183,1366x768,964x549,,Meta-Task,29,Meta-first,doublestim,484,398463,181,,69,,,simpleperceptual,30,responsePerceptual,,3.4,,20.83333333,1,,,13
89,1.60E+12,08/11/2020 13:03,1.60E+12,1,08/11/2020 14:03,12022,43,task-pf6t,,7648610,BLIND,2267201,,live,,,computer,Desktop or Laptop,Windows 7,Chrome 86.0.4240.183,1366x768,964x549,,Meta-Task,29,Meta-first,survey-likert,486,400317,1332,"{""Q0"":1}",,,,simpleperceptual,30,confidencerating,0.166666667,3.4,0.972222222,21.80555556,1,,,13
90,1.60E+12,08/11/2020 13:03,1.60E+12,1,08/11/2020 14:03,12022,43,task-pf6t,,7648610,BLIND,2267201,,live,,,computer,Desktop or Laptop,Windows 7,Chrome 86.0.4240.183,1366x768,964x549,,Meta-Task,29,Meta-first,doublestim,493,404263,42,,69,1,,simpleperceptual,31,responsePerceptual,,3.5,,21.80555556,1,,,13
91,1.60E+12,08/11/2020 13:03,1.60E+12,1,08/11/2020 14:03,12022,43,task-pf6t,,7648610,BLIND,2267201,,live,,,computer,Desktop or Laptop,Windows 7,Chrome 86.0.4240.183,1366x768,964x549,,Meta-Task,29,Meta-first,survey-likert,495,405827,1041,"{""Q0"":6}",,1,,simpleperceptual,31,confidencerating,1,3.5,1,22.80555556,1,,,13
92,1.60E+12,08/11/2020 13:04,1.60E+12,1,08/11/2020 14:04,12022,43,task-pf6t,,7648610,BLIND,2267201,,live,,,computer,Desktop or Laptop,Windows 7,Chrome 86.0.4240.183,1366x768,964x549,,Meta-Task,29,Meta-first,doublestim,502,409791,61,,87,1,,simpleperceptual,32,responsePerceptual,,3.5,,22.80555556,1,,,13
93,1.60E+12,08/11/2020 13:04,1.60E+12,1,08/11/2020 14:04,12022,43,task-pf6t,,7648610,BLIND,2267201,,live,,,computer,Desktop or Laptop,Windows 7,Chrome 86.0.4240.183,1366x768,964x549,,Meta-Task,29,Meta-first,survey-likert,504,411557,1241,"{""Q0"":1}",,1,,simpleperceptual,32,confidencerating,0.166666667,3.5,0.305555556,23.11111111,1,,,13
94,1.60E+12,08/11/2020 13:04,1.60E+12,1,08/11/2020 14:04,12022,43,task-pf6t,,7648610,BLIND,2267201,,live,,,computer,Desktop or Laptop,Windows 7,Chrome 86.0.4240.183,1366x768,964x549,,Meta-Task,29,Meta-first,doublestim,511,416046,585,,69,1,,simpleperceptual,33,responsePerceptual,,3.4,,23.11111111,1,,,14
95,1.60E+12,08/11/2020 13:04,1.60E+12,1,08/11/2020 14:04,12022,43,task-pf6t,,7648610,BLIND,2267201,,live,,,computer,Desktop or Laptop,Windows 7,Chrome 86.0.4240.183,1366x768,964x549,,Meta-Task,29,Meta-first,survey-likert,513,417719,1149,"{""Q0"":6}",,1,,simpleperceptual,33,confidencerating,1,3.4,1,24.11111111,1,,,14
96,1.60E+12,08/11/2020 13:04,1.60E+12,1,08/11/2020 14:04,12022,43,task-pf6t,,7648610,BLIND,2267201,,live,,,computer,Desktop or Laptop,Windows 7,Chrome 86.0.4240.183,1366x768,964x549,,Meta-Task,29,Meta-first,doublestim,520,421774,153,,69,,,simpleperceptual,34,responsePerceptual,,3.4,,24.11111111,1,,,14
97,1.60E+12,08/11/2020 13:04,1.60E+12,1,08/11/2020 14:04,12022,43,task-pf6t,,7648610,BLIND,2267201,,live,,,computer,Desktop or Laptop,Windows 7,Chrome 86.0.4240.183,1366x768,964x549,,Meta-Task,29,Meta-first,survey-likert,522,423820,1523,"{""Q0"":1}",,,,simpleperceptual,34,confidencerating,0.166666667,3.4,0.972222222,25.08333333,1,,,14
98,1.60E+12,08/11/2020 13:04,1.60E+12,1,08/11/2020 14:04,12022,43,task-pf6t,,7648610,BLIND,2267201,,live,,,computer,Desktop or Laptop,Windows 7,Chrome 86.0.4240.183,1366x768,964x549,,Meta-Task,29,Meta-first,doublestim,529,430848,3115,,87,,,simpleperceptual,35,responsePerceptual,,3.5,,25.08333333,1,,,15
99,1.60E+12,08/11/2020 13:04,1.60E+12,1,08/11/2020 14:04,12022,43,task-pf6t,,7648610,BLIND,2267201,,live,,,computer,Desktop or Laptop,Windows 7,Chrome 86.0.4240.183,1366x768,964x549,,Meta-Task,29,Meta-first,survey-likert,531,433520,2142,"{""Q0"":1}",,,,simpleperceptual,35,confidencerating,0.166666667,3.5,0.972222222,26.05555556,1,,,15
100,1.60E+12,08/11/2020 13:04,1.60E+12,1,08/11/2020 14:04,12022,43,task-pf6t,,7648610,BLIND,2267201,,live,,,computer,Desktop or Laptop,Windows 7,Chrome 86.0.4240.183,1366x768,964x549,,Meta-Task,29,Meta-first,doublestim,538,437679,254,,87,1,,simpleperceptual,36,responsePerceptual,,3.6,,26.05555556,1,,,15
101,1.60E+12,08/11/2020 13:04,1.60E+12,1,08/11/2020 14:04,12022,43,task-pf6t,,7648610,BLIND,2267201,,live,,,computer,Desktop or Laptop,Windows 7,Chrome 86.0.4240.183,1366x768,964x549,,Meta-Task,29,Meta-first,survey-likert,540,439132,928,"{""Q0"":6}",,1,,simpleperceptual,36,confidencerating,1,3.6,1,27.05555556,1,,,15
102,1.60E+12,08/11/2020 13:04,1.60E+12,1,08/11/2020 14:04,12022,43,task-pf6t,,7648610,BLIND,2267201,,live,,,computer,Desktop or Laptop,Windows 7,Chrome 86.0.4240.183,1366x768,964x549,,Meta-Task,29,Meta-first,doublestim,547,443224,187,,87,1,,simpleperceptual,37,responsePerceptual,,3.6,,27.05555556,1,,,15
103,1.60E+12,08/11/2020 13:04,1.60E+12,1,08/11/2020 14:04,12022,43,task-pf6t,,7648610,BLIND,2267201,,live,,,computer,Desktop or Laptop,Windows 7,Chrome 86.0.4240.183,1366x768,964x549,,Meta-Task,29,Meta-first,survey-likert,549,445609,1863,"{""Q0"":6}",,1,,simpleperceptual,37,confidencerating,1,3.6,1,28.05555556,1,,,15
104,1.60E+12,08/11/2020 13:04,1.60E+12,1,08/11/2020 14:04,12022,43,task-pf6t,,7648610,BLIND,2267201,,live,,,computer,Desktop or Laptop,Windows 7,Chrome 86.0.4240.183,1366x768,964x549,,Meta-Task,29,Meta-first,doublestim,556,450367,851,,87,1,,simpleperceptual,38,responsePerceptual,,3.5,,28.05555556,1,,,16
105,1.60E+12,08/11/2020 13:04,1.60E+12,1,08/11/2020 14:04,12022,43,task-pf6t,,7648610,BLIND,2267201,,live,,,computer,Desktop or Laptop,Windows 7,Chrome 86.0.4240.183,1366x768,964x549,,Meta-Task,29,Meta-first,survey-likert,558,452081,1192,"{""Q0"":6}",,1,,simpleperceptual,38,confidencerating,1,3.5,1,29.05555556,1,,,16
106,1.60E+12,08/11/2020 13:04,1.60E+12,1,08/11/2020 14:04,12022,43,task-pf6t,,7648610,BLIND,2267201,,live,,,computer,Desktop or Laptop,Windows 7,Chrome 86.0.4240.183,1366x768,964x549,,Meta-Task,29,Meta-first,doublestim,565,456287,301,,87,,,simpleperceptual,39,responsePerceptual,,3.5,,29.05555556,1,,,16
107,1.60E+12,08/11/2020 13:04,1.60E+12,1,08/11/2020 14:04,12022,43,task-pf6t,,7648610,BLIND,2267201,,live,,,computer,Desktop or Laptop,Windows 7,Chrome 86.0.4240.183,1366x768,964x549,,Meta-Task,29,Meta-first,survey-likert,567,457921,1112,"{""Q0"":6}",,,,simpleperceptual,39,confidencerating,1,3.5,0,29.05555556,1,,,16
108,1.60E+12,08/11/2020 13:04,1.60E+12,1,08/11/2020 14:04,12022,43,task-pf6t,,7648610,BLIND,2267201,,live,,,computer,Desktop or Laptop,Windows 7,Chrome 86.0.4240.183,1366x768,964x549,,Meta-Task,29,Meta-first,doublestim,574,462318,495,,87,1,,simpleperceptual,40,responsePerceptual,,3.6,,29.05555556,1,,,17
109,1.60E+12,08/11/2020 13:04,1.60E+12,1,08/11/2020 14:04,12022,43,task-pf6t,,7648610,BLIND,2267201,,live,,,computer,Desktop or Laptop,Windows 7,Chrome 86.0.4240.183,1366x768,964x549,,Meta-Task,29,Meta-first,survey-likert,576,464005,1163,"{""Q0"":6}",,1,,simpleperceptual,40,confidencerating,1,3.6,1,30.05555556,1,,,17
110,1.60E+12,08/11/2020 13:05,1.60E+12,1,08/11/2020 14:05,12022,43,task-pf6t,,7648610,BLIND,2267201,,live,,,computer,Desktop or Laptop,Windows 7,Chrome 86.0.4240.183,1366x768,964x549,,Meta-Task,29,Meta-first,doublestim,583,468231,321,,87,1,,simpleperceptual,41,responsePerceptual,,3.6,,30.05555556,1,,,17
111,1.60E+12,08/11/2020 13:05,1.60E+12,1,08/11/2020 14:05,12022,43,task-pf6t,,7648610,BLIND,2267201,,live,,,computer,Desktop or Laptop,Windows 7,Chrome 86.0.4240.183,1366x768,964x549,,Meta-Task,29,Meta-first,survey-likert,585,469759,1006,"{""Q0"":6}",,1,,simpleperceptual,41,confidencerating,1,3.6,1,31.05555556,1,,,17
112,1.60E+12,08/11/2020 13:05,1.60E+12,1,08/11/2020 14:05,12022,43,task-pf6t,,7648610,BLIND,2267201,,live,,,computer,Desktop or Laptop,Windows 7,Chrome 86.0.4240.183,1366x768,964x549,,Meta-Task,29,Meta-first,doublestim,592,474054,391,,87,1,,simpleperceptual,42,responsePerceptual,,3.5,,31.05555556,1,,,18
113,1.60E+12,08/11/2020 13:05,1.60E+12,1,08/11/2020 14:05,12022,43,task-pf6t,,7648610,BLIND,2267201,,live,,,computer,Desktop or Laptop,Windows 7,Chrome 86.0.4240.183,1366x768,964x549,,Meta-Task,29,Meta-first,survey-likert,594,475770,1190,"{""Q0"":6}",,1,,simpleperceptual,42,confidencerating,1,3.5,1,32.05555556,1,,,18
114,1.60E+12,08/11/2020 13:26,1.60E+12,1,08/11/2020 14:26,12022,43,task-pf6t,,7648610,BLIND,2267201,,live,,,computer,Desktop or Laptop,Windows 7,Chrome 86.0.4240.183,1366x768,964x549,,Meta-Task,29,Meta-first,doublestim,602,1737991,886,,69,,,simpleperceptual,43,responsePerceptual,,3.5,,32.05555556,1,,,18
115,1.60E+12,08/11/2020 13:26,1.60E+12,1,08/11/2020 14:26,12022,43,task-pf6t,,7648610,BLIND,2267201,,live,,,computer,Desktop or Laptop,Windows 7,Chrome 86.0.4240.183,1366x768,964x549,,Meta-Task,29,Meta-first,survey-likert,604,1740856,2341,"{""Q0"":1}",,,,simpleperceptual,43,confidencerating,0.166666667,3.5,0.972222222,33.02777778,1,,,18
116,1.60E+12,08/11/2020 13:26,1.60E+12,1,08/11/2020 14:26,12022,43,task-pf6t,,7648610,BLIND,2267201,,live,,,computer,Desktop or Laptop,Windows 7,Chrome 86.0.4240.183,1366x768,964x549,,Meta-Task,29,Meta-first,doublestim,611,1744831,71,,69,,,simpleperceptual,44,responsePerceptual,,3.5,,33.02777778,1,,,18
117,1.60E+12,08/11/2020 13:26,1.60E+12,1,08/11/2020 14:26,12022,43,task-pf6t,,7648610,BLIND,2267201,,live,,,computer,Desktop or Laptop,Windows 7,Chrome 86.0.4240.183,1366x768,964x549,,Meta-Task,29,Meta-first,survey-likert,613,1747436,2084,"{""Q0"":6}",,,,simpleperceptual,44,confidencerating,1,3.5,0,33.02777778,1,,,18
118,1.60E+12,08/11/2020 13:26,1.60E+12,1,08/11/2020 14:26,12022,43,task-pf6t,,7648610,BLIND,2267201,,live,,,computer,Desktop or Laptop,Windows 7,Chrome 86.0.4240.183,1366x768,964x549,,Meta-Task,29,Meta-first,doublestim,620,1751438,98,,87,,,simpleperceptual,45,responsePerceptual,,3.5,,33.02777778,1,,,18
119,1.60E+12,08/11/2020 13:26,1.60E+12,1,08/11/2020 14:26,12022,43,task-pf6t,,7648610,BLIND,2267201,,live,,,computer,Desktop or Laptop,Windows 7,Chrome 86.0.4240.183,1366x768,964x549,,Meta-Task,29,Meta-first,survey-likert,622,1753936,1975,"{""Q0"":6}",,,,simpleperceptual,45,confidencerating,1,3.5,0,33.02777778,1,,,18
120,1.60E+12,08/11/2020 13:26,1.60E+12,1,08/11/2020 14:26,12022,43,task-pf6t,,7648610,BLIND,2267201,,live,,,computer,Desktop or Laptop,Windows 7,Chrome 86.0.4240.183,1366x768,964x549,,Meta-Task,29,Meta-first,doublestim,629,1758214,376,,87,1,,simpleperceptual,46,responsePerceptual,,3.5,,33.02777778,1,,,18
121,1.60E+12,08/11/2020 13:26,1.60E+12,1,08/11/2020 14:26,12022,43,task-pf6t,,7648610,BLIND,2267201,,live,,,computer,Desktop or Laptop,Windows 7,Chrome 86.0.4240.183,1366x768,964x549,,Meta-Task,29,Meta-first,survey-likert,631,1760020,1282,"{""Q0"":1}",,1,,simpleperceptual,46,confidencerating,0.166666667,3.5,0.305555556,33.33333333,1,,,18
122,1.60E+12,08/11/2020 13:26,1.60E+12,1,08/11/2020 14:26,12022,43,task-pf6t,,7648610,BLIND,2267201,,live,,,computer,Desktop or Laptop,Windows 7,Chrome 86.0.4240.183,1366x768,964x549,,Meta-Task,29,Meta-first,doublestim,638,1764327,401,,87,1,,simpleperceptual,47,responsePerceptual,,3.5,,33.33333333,1,,,18
123,1.60E+12,08/11/2020 13:26,1.60E+12,1,08/11/2020 14:26,12022,43,task-pf6t,,7648610,BLIND,2267201,,live,,,computer,Desktop or Laptop,Windows 7,Chrome 86.0.4240.183,1366x768,964x549,,Meta-Task,29,Meta-first,survey-likert,640,1766246,1398,"{""Q0"":6}",,1,,simpleperceptual,47,confidencerating,1,3.5,1,34.33333333,1,,,18
124,1.60E+12,08/11/2020 13:26,1.60E+12,1,08/11/2020 14:26,12022,43,task-pf6t,,7648610,BLIND,2267201,,live,,,computer,Desktop or Laptop,Windows 7,Chrome 86.0.4240.183,1366x768,964x549,,Meta-Task,29,Meta-first,doublestim,647,1770382,234,,69,1,,simpleperceptual,48,responsePerceptual,,3.5,,34.33333333,1,,,18
125,1.60E+12,08/11/2020 13:26,1.60E+12,1,08/11/2020 14:26,12022,43,task-pf6t,,7648610,BLIND,2267201,,live,,,computer,Desktop or Laptop,Windows 7,Chrome 86.0.4240.183,1366x768,964x549,,Meta-Task,29,Meta-first,survey-likert,649,1771898,994,"{""Q0"":6}",,1,,simpleperceptual,48,confidencerating,1,3.5,1,35.33333333,1,,,18
126,1.60E+12,08/11/2020 13:26,1.60E+12,1,08/11/2020 14:26,12022,43,task-pf6t,,7648610,BLIND,2267201,,live,,,computer,Desktop or Laptop,Windows 7,Chrome 86.0.4240.183,1366x768,964x549,,Meta-Task,29,Meta-first,doublestim,656,1776493,692,,87,1,,simpleperceptual,49,responsePerceptual,,3.5,,35.33333333,1,,,18
127,1.60E+12,08/11/2020 13:26,1.60E+12,1,08/11/2020 14:26,12022,43,task-pf6t,,7648610,BLIND,2267201,,live,,,computer,Desktop or Laptop,Windows 7,Chrome 86.0.4240.183,1366x768,964x549,,Meta-Task,29,Meta-first,survey-likert,658,1778413,1396,"{""Q0"":6}",,1,,simpleperceptual,49,confidencerating,1,3.5,1,36.33333333,1,,,18
128,1.60E+12,08/11/2020 13:26,1.60E+12,1,08/11/2020 14:26,12022,43,task-pf6t,,7648610,BLIND,2267201,,live,,,computer,Desktop or Laptop,Windows 7,Chrome 86.0.4240.183,1366x768,964x549,,Meta-Task,29,Meta-first,doublestim,665,1782749,433,,69,,,simpleperceptual,50,responsePerceptual,,3.5,,36.33333333,1,,,18
129,1.60E+12,08/11/2020 13:26,1.60E+12,1,08/11/2020 14:26,12022,43,task-pf6t,,7648610,BLIND,2267201,,live,,,computer,Desktop or Laptop,Windows 7,Chrome 86.0.4240.183,1366x768,964x549,,Meta-Task,29,Meta-first,survey-likert,667,1784451,1178,"{""Q0"":1}",,,,simpleperceptual,50,confidencerating,0.166666667,3.5,0.972222222,37.30555556,1,,,18
130,1.60E+12,08/11/2020 13:27,1.60E+12,1,08/11/2020 14:27,12022,43,task-pf6t,,7648610,BLIND,2267201,,live,,,computer,Desktop or Laptop,Windows 7,Chrome 86.0.4240.183,1366x768,964x549,,Meta-Task,29,Meta-first,doublestim,674,1788701,347,,87,1,,simpleperceptual,51,responsePerceptual,,3.5,,37.30555556,1,,,18
131,1.60E+12,08/11/2020 13:27,1.60E+12,1,08/11/2020 14:27,12022,43,task-pf6t,,7648610,BLIND,2267201,,live,,,computer,Desktop or Laptop,Windows 7,Chrome 86.0.4240.183,1366x768,964x549,,Meta-Task,29,Meta-first,survey-likert,676,1790521,1297,"{""Q0"":6}",,1,,simpleperceptual,51,confidencerating,1,3.5,1,38.30555556,1,,,18
132,1.60E+12,08/11/2020 13:27,1.60E+12,1,08/11/2020 14:27,12022,43,task-pf6t,,7648610,BLIND,2267201,,live,,,computer,Desktop or Laptop,Windows 7,Chrome 86.0.4240.183,1366x768,964x549,,Meta-Task,29,Meta-first,doublestim,683,1794614,190,,87,,,simpleperceptual,52,responsePerceptual,,3.5,,38.30555556,1,,,18
133,1.60E+12,08/11/2020 13:27,1.60E+12,1,08/11/2020 14:27,12022,43,task-pf6t,,7648610,BLIND,2267201,,live,,,computer,Desktop or Laptop,Windows 7,Chrome 86.0.4240.183,1366x768,964x549,,Meta-Task,29,Meta-first,survey-likert,685,1796824,1689,"{""Q0"":6}",,,,simpleperceptual,52,confidencerating,1,3.5,0,38.30555556,1,,,18
134,1.60E+12,08/11/2020 13:27,1.60E+12,1,08/11/2020 14:27,12022,43,task-pf6t,,7648610,BLIND,2267201,,live,,,computer,Desktop or Laptop,Windows 7,Chrome 86.0.4240.183,1366x768,964x549,,Meta-Task,29,Meta-first,doublestim,692,1800814,85,,69,1,,simpleperceptual,53,responsePerceptual,,3.5,,38.30555556,1,,,18
135,1.60E+12,08/11/2020 13:27,1.60E+12,1,08/11/2020 14:27,12022,43,task-pf6t,,7648610,BLIND,2267201,,live,,,computer,Desktop or Laptop,Windows 7,Chrome 86.0.4240.183,1366x768,964x549,,Meta-Task,29,Meta-first,survey-likert,694,1802274,937,"{""Q0"":5}",,1,,simpleperceptual,53,confidencerating,0.833333333,3.5,0.972222222,39.27777778,1,,,18
136,1.60E+12,08/11/2020 13:27,1.60E+12,1,08/11/2020 14:27,12022,43,task-pf6t,,7648610,BLIND,2267201,,live,,,computer,Desktop or Laptop,Windows 7,Chrome 86.0.4240.183,1366x768,964x549,,Meta-Task,29,Meta-first,doublestim,701,1806254,75,,87,1,,simpleperceptual,54,responsePerceptual,,3.5,,39.27777778,1,,,18
137,1.60E+12,08/11/2020 13:27,1.60E+12,1,08/11/2020 14:27,12022,43,task-pf6t,,7648610,BLIND,2267201,,live,,,computer,Desktop or Laptop,Windows 7,Chrome 86.0.4240.183,1366x768,964x549,,Meta-Task,29,Meta-first,survey-likert,703,1807626,848,"{""Q0"":6}",,1,,simpleperceptual,54,confidencerating,1,3.5,1,40.27777778,1,,,18
138,1.60E+12,08/11/2020 13:27,1.60E+12,1,08/11/2020 14:27,12022,43,task-pf6t,,7648610,BLIND,2267201,,live,,,computer,Desktop or Laptop,Windows 7,Chrome 86.0.4240.183,1366x768,964x549,,Meta-Task,29,Meta-first,doublestim,710,1811878,348,,87,1,,simpleperceptual,55,responsePerceptual,,3.5,,40.27777778,1,,,18
139,1.60E+12,08/11/2020 13:27,1.60E+12,1,08/11/2020 14:27,12022,43,task-pf6t,,7648610,BLIND,2267201,,live,,,computer,Desktop or Laptop,Windows 7,Chrome 86.0.4240.183,1366x768,964x549,,Meta-Task,29,Meta-first,survey-likert,712,1813844,1443,"{""Q0"":1}",,1,,simpleperceptual,55,confidencerating,0.166666667,3.5,0.305555556,40.58333333,1,,,18
140,1.60E+12,08/11/2020 13:27,1.60E+12,1,08/11/2020 14:27,12022,43,task-pf6t,,7648610,BLIND,2267201,,live,,,computer,Desktop or Laptop,Windows 7,Chrome 86.0.4240.183,1366x768,964x549,,Meta-Task,29,Meta-first,doublestim,719,1818134,386,,87,1,,simpleperceptual,56,responsePerceptual,,3.5,,40.58333333,1,,,18
141,1.60E+12,08/11/2020 13:27,1.60E+12,1,08/11/2020 14:27,12022,43,task-pf6t,,7648610,BLIND,2267201,,live,,,computer,Desktop or Laptop,Windows 7,Chrome 86.0.4240.183,1366x768,964x549,,Meta-Task,29,Meta-first,survey-likert,721,1819740,1080,"{""Q0"":6}",,1,,simpleperceptual,56,confidencerating,1,3.5,1,41.58333333,1,,,18
142,1.60E+12,08/11/2020 13:27,1.60E+12,1,08/11/2020 14:27,12022,43,task-pf6t,,7648610,BLIND,2267201,,live,,,computer,Desktop or Laptop,Windows 7,Chrome 86.0.4240.183,1366x768,964x549,,Meta-Task,29,Meta-first,doublestim,728,1824133,491,,69,,,simpleperceptual,57,responsePerceptual,,3.5,,41.58333333,1,,,18
143,1.60E+12,08/11/2020 13:27,1.60E+12,1,08/11/2020 14:27,12022,43,task-pf6t,,7648610,BLIND,2267201,,live,,,computer,Desktop or Laptop,Windows 7,Chrome 86.0.4240.183,1366x768,964x549,,Meta-Task,29,Meta-first,survey-likert,730,1826687,2030,"{""Q0"":1}",,,,simpleperceptual,57,confidencerating,0.166666667,3.5,0.972222222,42.55555556,1,,,18
144,1.60E+12,08/11/2020 13:27,1.60E+12,1,08/11/2020 14:27,12022,43,task-pf6t,,7648610,BLIND,2267201,,live,,,computer,Desktop or Laptop,Windows 7,Chrome 86.0.4240.183,1366x768,964x549,,Meta-Task,29,Meta-first,doublestim,737,1830775,181,,69,1,,simpleperceptual,58,responsePerceptual,,3.5,,42.55555556,1,,,18
145,1.60E+12,08/11/2020 13:27,1.60E+12,1,08/11/2020 14:27,12022,43,task-pf6t,,7648610,BLIND,2267201,,live,,,computer,Desktop or Laptop,Windows 7,Chrome 86.0.4240.183,1366x768,964x549,,Meta-Task,29,Meta-first,survey-likert,739,1832197,899,"{""Q0"":6}",,1,,simpleperceptual,58,confidencerating,1,3.5,1,43.55555556,1,,,18
146,1.60E+12,08/11/2020 13:27,1.60E+12,1,08/11/2020 14:27,12022,43,task-pf6t,,7648610,BLIND,2267201,,live,,,computer,Desktop or Laptop,Windows 7,Chrome 86.0.4240.183,1366x768,964x549,,Meta-Task,29,Meta-first,doublestim,746,1836741,638,,87,,,simpleperceptual,59,responsePerceptual,,3.5,,43.55555556,1,,,18
147,1.60E+12,08/11/2020 13:27,1.60E+12,1,08/11/2020 14:27,12022,43,task-pf6t,,7648610,BLIND,2267201,,live,,,computer,Desktop or Laptop,Windows 7,Chrome 86.0.4240.183,1366x768,964x549,,Meta-Task,29,Meta-first,survey-likert,748,1837981,717,"{""Q0"":6}",,,,simpleperceptual,59,confidencerating,1,3.5,0,43.55555556,1,,,18
148,1.60E+12,08/11/2020 13:27,1.60E+12,1,08/11/2020 14:27,12022,43,task-pf6t,,7648610,BLIND,2267201,,live,,,computer,Desktop or Laptop,Windows 7,Chrome 86.0.4240.183,1366x768,964x549,,Meta-Task,29,Meta-first,doublestim,755,1841949,60,,87,1,,simpleperceptual,60,responsePerceptual,,3.5,,43.55555556,1,,,18
149,1.60E+12,08/11/2020 13:27,1.60E+12,1,08/11/2020 14:27,12022,43,task-pf6t,,7648610,BLIND,2267201,,live,,,computer,Desktop or Laptop,Windows 7,Chrome 86.0.4240.183,1366x768,964x549,,Meta-Task,29,Meta-first,survey-likert,757,1843343,872,"{""Q0"":6}",,1,,simpleperceptual,60,confidencerating,1,3.5,1,44.55555556,1,,,18
150,1.60E+12,08/11/2020 13:28,1.60E+12,1,08/11/2020 14:28,12022,43,task-pf6t,,7648610,BLIND,2267201,,live,,,computer,Desktop or Laptop,Windows 7,Chrome 86.0.4240.183,1366x768,964x549,,Meta-Task,29,Meta-first,doublestim,764,1847877,629,,87,1,,simpleperceptual,61,responsePerceptual,,3.5,,44.55555556,1,,,18
151,1.60E+12,08/11/2020 13:28,1.60E+12,1,08/11/2020 14:28,12022,43,task-pf6t,,7648610,BLIND,2267201,,live,,,computer,Desktop or Laptop,Windows 7,Chrome 86.0.4240.183,1366x768,964x549,,Meta-Task,29,Meta-first,survey-likert,766,1849485,1084,"{""Q0"":1}",,1,,simpleperceptual,61,confidencerating,0.166666667,3.5,0.305555556,44.86111111,1,,,18
152,1.60E+12,08/11/2020 13:28,1.60E+12,1,08/11/2020 14:28,12022,43,task-pf6t,,7648610,BLIND,2267201,,live,,,computer,Desktop or Laptop,Windows 7,Chrome 86.0.4240.183,1366x768,964x549,,Meta-Task,29,Meta-first,doublestim,773,1853614,225,,69,1,,simpleperceptual,62,responsePerceptual,,3.5,,44.86111111,1,,,18
153,1.60E+12,08/11/2020 13:28,1.60E+12,1,08/11/2020 14:28,12022,43,task-pf6t,,7648610,BLIND,2267201,,live,,,computer,Desktop or Laptop,Windows 7,Chrome 86.0.4240.183,1366x768,964x549,,Meta-Task,29,Meta-first,survey-likert,775,1855236,1100,"{""Q0"":1}",,1,,simpleperceptual,62,confidencerating,0.166666667,3.5,0.305555556,45.16666667,1,,,18
154,1.60E+12,08/11/2020 13:28,1.60E+12,1,08/11/2020 14:28,12022,43,task-pf6t,,7648610,BLIND,2267201,,live,,,computer,Desktop or Laptop,Windows 7,Chrome 86.0.4240.183,1366x768,964x549,,Meta-Task,29,Meta-first,doublestim,782,1859406,265,,69,1,,simpleperceptual,63,responsePerceptual,,3.5,,45.16666667,1,,,18
155,1.60E+12,08/11/2020 13:28,1.60E+12,1,08/11/2020 14:28,12022,43,task-pf6t,,7648610,BLIND,2267201,,live,,,computer,Desktop or Laptop,Windows 7,Chrome 86.0.4240.183,1366x768,964x549,,Meta-Task,29,Meta-first,survey-likert,784,1861848,1918,"{""Q0"":1}",,1,,simpleperceptual,63,confidencerating,0.166666667,3.5,0.305555556,45.47222222,1,,,18
156,1.60E+12,08/11/2020 13:28,1.60E+12,1,08/11/2020 14:28,12022,43,task-pf6t,,7648610,BLIND,2267201,,live,,,computer,Desktop or Laptop,Windows 7,Chrome 86.0.4240.183,1366x768,964x549,,Meta-Task,29,Meta-first,doublestim,791,1865902,147,,87,,,simpleperceptual,64,responsePerceptual,,3.5,,45.47222222,1,,,18
157,1.60E+12,08/11/2020 13:28,1.60E+12,1,08/11/2020 14:28,12022,43,task-pf6t,,7648610,BLIND,2267201,,live,,,computer,Desktop or Laptop,Windows 7,Chrome 86.0.4240.183,1366x768,964x549,,Meta-Task,29,Meta-first,survey-likert,793,1868176,1751,"{""Q0"":1}",,,,simpleperceptual,64,confidencerating,0.166666667,3.5,0.972222222,46.44444444,1,,,18
158,1.60E+12,08/11/2020 13:28,1.60E+12,1,08/11/2020 14:28,12022,43,task-pf6t,,7648610,BLIND,2267201,,live,,,computer,Desktop or Laptop,Windows 7,Chrome 86.0.4240.183,1366x768,964x549,,Meta-Task,29,Meta-first,doublestim,800,1872158,76,,69,1,,simpleperceptual,65,responsePerceptual,,3.5,,46.44444444,1,,,18
159,1.60E+12,08/11/2020 13:28,1.60E+12,1,08/11/2020 14:28,12022,43,task-pf6t,,7648610,BLIND,2267201,,live,,,computer,Desktop or Laptop,Windows 7,Chrome 86.0.4240.183,1366x768,964x549,,Meta-Task,29,Meta-first,survey-likert,802,1873528,846,"{""Q0"":6}",,1,,simpleperceptual,65,confidencerating,1,3.5,1,47.44444444,1,,,18
160,1.60E+12,08/11/2020 13:28,1.60E+12,1,08/11/2020 14:28,12022,43,task-pf6t,,7648610,BLIND,2267201,,live,,,computer,Desktop or Laptop,Windows 7,Chrome 86.0.4240.183,1366x768,964x549,,Meta-Task,29,Meta-first,doublestim,809,1877973,542,,69,1,,simpleperceptual,66,responsePerceptual,,3.5,,47.44444444,1,,,18
161,1.60E+12,08/11/2020 13:28,1.60E+12,1,08/11/2020 14:28,12022,43,task-pf6t,,7648610,BLIND,2267201,,live,,,computer,Desktop or Laptop,Windows 7,Chrome 86.0.4240.183,1366x768,964x549,,Meta-Task,29,Meta-first,survey-likert,811,1879282,786,"{""Q0"":6}",,1,,simpleperceptual,66,confidencerating,1,3.5,1,48.44444444,1,,,18
162,1.60E+12,08/11/2020 13:28,1.60E+12,1,08/11/2020 14:28,12022,43,task-pf6t,,7648610,BLIND,2267201,,live,,,computer,Desktop or Laptop,Windows 7,Chrome 86.0.4240.183,1366x768,964x549,,Meta-Task,29,Meta-first,doublestim,818,1883197,7,,69,1,,simpleperceptual,67,responsePerceptual,,3.5,,48.44444444,1,,,18
163,1.60E+12,08/11/2020 13:28,1.60E+12,1,08/11/2020 14:28,12022,43,task-pf6t,,7648610,BLIND,2267201,,live,,,computer,Desktop or Laptop,Windows 7,Chrome 86.0.4240.183,1366x768,964x549,,Meta-Task,29,Meta-first,survey-likert,820,1884778,1056,"{""Q0"":6}",,1,,simpleperceptual,67,confidencerating,1,3.5,1,49.44444444,1,,,18
164,1.60E+12,08/11/2020 13:28,1.60E+12,1,08/11/2020 14:28,12022,43,task-pf6t,,7648610,BLIND,2267201,,live,,,computer,Desktop or Laptop,Windows 7,Chrome 86.0.4240.183,1366x768,964x549,,Meta-Task,29,Meta-first,doublestim,827,1888901,220,,87,1,,simpleperceptual,68,responsePerceptual,,3.5,,49.44444444,1,,,18
165,1.60E+12,08/11/2020 13:28,1.60E+12,1,08/11/2020 14:28,12022,43,task-pf6t,,7648610,BLIND,2267201,,live,,,computer,Desktop or Laptop,Windows 7,Chrome 86.0.4240.183,1366x768,964x549,,Meta-Task,29,Meta-first,survey-likert,829,1891543,2119,"{""Q0"":6}",,1,,simpleperceptual,68,confidencerating,1,3.5,1,50.44444444,1,,,18
166,1.60E+12,08/11/2020 13:28,1.60E+12,1,08/11/2020 14:28,12022,43,task-pf6t,,7648610,BLIND,2267201,,live,,,computer,Desktop or Laptop,Windows 7,Chrome 86.0.4240.183,1366x768,964x549,,Meta-Task,29,Meta-first,doublestim,836,1895885,431,,69,1,,simpleperceptual,69,responsePerceptual,,3.5,,50.44444444,1,,,18
167,1.60E+12,08/11/2020 13:28,1.60E+12,1,08/11/2020 14:28,12022,43,task-pf6t,,7648610,BLIND,2267201,,live,,,computer,Desktop or Laptop,Windows 7,Chrome 86.0.4240.183,1366x768,964x549,,Meta-Task,29,Meta-first,survey-likert,838,1897385,976,"{""Q0"":6}",,1,,simpleperceptual,69,confidencerating,1,3.5,1,51.44444444,1,,,18
168,1.60E+12,08/11/2020 13:28,1.60E+12,1,08/11/2020 14:28,12022,43,task-pf6t,,7648610,BLIND,2267201,,live,,,computer,Desktop or Laptop,Windows 7,Chrome 86.0.4240.183,1366x768,964x549,,Meta-Task,29,Meta-first,doublestim,845,1901541,252,,87,1,,simpleperceptual,70,responsePerceptual,,3.5,,51.44444444,1,,,18
169,1.60E+12,08/11/2020 13:28,1.60E+12,1,08/11/2020 14:28,12022,43,task-pf6t,,7648610,BLIND,2267201,,live,,,computer,Desktop or Laptop,Windows 7,Chrome 86.0.4240.183,1366x768,964x549,,Meta-Task,29,Meta-first,survey-likert,847,1903467,1401,"{""Q0"":1}",,1,,simpleperceptual,70,confidencerating,0.166666667,3.5,0.305555556,51.75,1,,,18
170,1.60E+12,08/11/2020 13:28,1.60E+12,1,08/11/2020 14:28,12022,43,task-pf6t,,7648610,BLIND,2267201,,live,,,computer,Desktop or Laptop,Windows 7,Chrome 86.0.4240.183,1366x768,964x549,,Meta-Task,29,Meta-first,doublestim,854,1907396,23,,87,1,,simpleperceptual,71,responsePerceptual,,3.5,,51.75,1,,,18
171,1.60E+12,08/11/2020 13:29,1.60E+12,1,08/11/2020 14:29,12022,43,task-pf6t,,7648610,BLIND,2267201,,live,,,computer,Desktop or Laptop,Windows 7,Chrome 86.0.4240.183,1366x768,964x549,,Meta-Task,29,Meta-first,survey-likert,856,1910385,2467,"{""Q0"":1}",,1,,simpleperceptual,71,confidencerating,0.166666667,3.5,0.305555556,52.05555556,1,,,18
172,1.60E+12,08/11/2020 13:29,1.60E+12,1,08/11/2020 14:29,12022,43,task-pf6t,,7648610,BLIND,2267201,,live,,,computer,Desktop or Laptop,Windows 7,Chrome 86.0.4240.183,1366x768,964x549,,Meta-Task,29,Meta-first,doublestim,863,1914589,300,,87,1,,simpleperceptual,72,responsePerceptual,,3.5,,52.05555556,1,,,18
173,1.60E+12,08/11/2020 13:29,1.60E+12,1,08/11/2020 14:29,12022,43,task-pf6t,,7648610,BLIND,2267201,,live,,,computer,Desktop or Laptop,Windows 7,Chrome 86.0.4240.183,1366x768,964x549,,Meta-Task,29,Meta-first,survey-likert,865,1916250,1138,"{""Q0"":6}",,1,,simpleperceptual,72,confidencerating,1,3.5,1,53.05555556,1,,,18
174,1.60E+12,08/11/2020 13:29,1.60E+12,1,08/11/2020 14:29,12022,43,task-pf6t,,7648610,BLIND,2267201,,live,,,computer,Desktop or Laptop,Windows 7,Chrome 86.0.4240.183,1366x768,964x549,,Meta-Task,29,Meta-first,doublestim,872,1920357,203,,69,1,,simpleperceptual,73,responsePerceptual,,3.5,,53.05555556,1,,,18
175,1.60E+12,08/11/2020 13:29,1.60E+12,1,08/11/2020 14:29,12022,43,task-pf6t,,7648610,BLIND,2267201,,live,,,computer,Desktop or Laptop,Windows 7,Chrome 86.0.4240.183,1366x768,964x549,,Meta-Task,29,Meta-first,survey-likert,874,1921901,1020,"{""Q0"":1}",,1,,simpleperceptual,73,confidencerating,0.166666667,3.5,0.305555556,53.36111111,1,,,18
176,1.60E+12,08/11/2020 13:29,1.60E+12,1,08/11/2020 14:29,12022,43,task-pf6t,,7648610,BLIND,2267201,,live,,,computer,Desktop or Laptop,Windows 7,Chrome 86.0.4240.183,1366x768,964x549,,Meta-Task,29,Meta-first,doublestim,881,1926109,304,,87,1,,simpleperceptual,74,responsePerceptual,,3.5,,53.36111111,1,,,18
177,1.60E+12,08/11/2020 13:29,1.60E+12,1,08/11/2020 14:29,12022,43,task-pf6t,,7648610,BLIND,2267201,,live,,,computer,Desktop or Laptop,Windows 7,Chrome 86.0.4240.183,1366x768,964x549,,Meta-Task,29,Meta-first,survey-likert,883,1927362,732,"{""Q0"":6}",,1,,simpleperceptual,74,confidencerating,1,3.5,1,54.36111111,1,,,18
178,1.60E+12,08/11/2020 13:29,1.60E+12,1,08/11/2020 14:29,12022,43,task-pf6t,,7648610,BLIND,2267201,,live,,,computer,Desktop or Laptop,Windows 7,Chrome 86.0.4240.183,1366x768,964x549,,Meta-Task,29,Meta-first,doublestim,890,1931428,163,,87,,,simpleperceptual,75,responsePerceptual,,3.5,,54.36111111,1,,,18
179,1.60E+12,08/11/2020 13:29,1.60E+12,1,08/11/2020 14:29,12022,43,task-pf6t,,7648610,BLIND,2267201,,live,,,computer,Desktop or Laptop,Windows 7,Chrome 86.0.4240.183,1366x768,964x549,,Meta-Task,29,Meta-first,survey-likert,892,1933880,1931,"{""Q0"":1}",,,,simpleperceptual,75,confidencerating,0.166666667,3.5,0.972222222,55.33333333,1,,,18
180,1.60E+12,08/11/2020 13:29,1.60E+12,1,08/11/2020 14:29,12022,43,task-pf6t,,7648610,BLIND,2267201,,live,,,computer,Desktop or Laptop,Windows 7,Chrome 86.0.4240.183,1366x768,964x549,,Meta-Task,29,Meta-first,doublestim,899,1937813,27,,69,,,simpleperceptual,76,responsePerceptual,,3.5,,55.33333333,1,,,18
181,1.60E+12,08/11/2020 13:29,1.60E+12,1,08/11/2020 14:29,12022,43,task-pf6t,,7648610,BLIND,2267201,,live,,,computer,Desktop or Laptop,Windows 7,Chrome 86.0.4240.183,1366x768,964x549,,Meta-Task,29,Meta-first,survey-likert,901,1939570,1233,"{""Q0"":6}",,,,simpleperceptual,76,confidencerating,1,3.5,0,55.33333333,1,,,18
182,1.60E+12,08/11/2020 13:29,1.60E+12,1,08/11/2020 14:29,12022,43,task-pf6t,,7648610,BLIND,2267201,,live,,,computer,Desktop or Laptop,Windows 7,Chrome 86.0.4240.183,1366x768,964x549,,Meta-Task,29,Meta-first,doublestim,908,1943932,454,,69,1,,simpleperceptual,77,responsePerceptual,,3.5,,55.33333333,1,,,18
183,1.60E+12,08/11/2020 13:29,1.60E+12,1,08/11/2020 14:29,12022,43,task-pf6t,,7648610,BLIND,2267201,,live,,,computer,Desktop or Laptop,Windows 7,Chrome 86.0.4240.183,1366x768,964x549,,Meta-Task,29,Meta-first,survey-likert,910,1945740,1284,"{""Q0"":6}",,1,,simpleperceptual,77,confidencerating,1,3.5,1,56.33333333,1,,,18
184,1.60E+12,08/11/2020 13:29,1.60E+12,1,08/11/2020 14:29,12022,43,task-pf6t,,7648610,BLIND,2267201,,live,,,computer,Desktop or Laptop,Windows 7,Chrome 86.0.4240.183,1366x768,964x549,,Meta-Task,29,Meta-first,doublestim,917,1949908,265,,87,1,,simpleperceptual,78,responsePerceptual,,3.5,,56.33333333,1,,,18
185,1.60E+12,08/11/2020 13:29,1.60E+12,1,08/11/2020 14:29,12022,43,task-pf6t,,7648610,BLIND,2267201,,live,,,computer,Desktop or Laptop,Windows 7,Chrome 86.0.4240.183,1366x768,964x549,,Meta-Task,29,Meta-first,survey-likert,919,1951330,897,"{""Q0"":6}",,1,,simpleperceptual,78,confidencerating,1,3.5,1,57.33333333,1,,,18
186,1.60E+12,08/11/2020 13:29,1.60E+12,1,08/11/2020 14:29,12022,43,task-pf6t,,7648610,BLIND,2267201,,live,,,computer,Desktop or Laptop,Windows 7,Chrome 86.0.4240.183,1366x768,964x549,,Meta-Task,29,Meta-first,doublestim,926,1955524,290,,87,1,,simpleperceptual,79,responsePerceptual,,3.5,,57.33333333,1,,,18
187,1.60E+12,08/11/2020 13:29,1.60E+12,1,08/11/2020 14:29,12022,43,task-pf6t,,7648610,BLIND,2267201,,live,,,computer,Desktop or Laptop,Windows 7,Chrome 86.0.4240.183,1366x768,964x549,,Meta-Task,29,Meta-first,survey-likert,928,1957602,1554,"{""Q0"":6}",,1,,simpleperceptual,79,confidencerating,1,3.5,1,58.33333333,1,,,18
188,1.60E+12,08/11/2020 13:29,1.60E+12,1,08/11/2020 14:29,12022,43,task-pf6t,,7648610,BLIND,2267201,,live,,,computer,Desktop or Laptop,Windows 7,Chrome 86.0.4240.183,1366x768,964x549,,Meta-Task,29,Meta-first,doublestim,935,1961548,41,,87,1,,simpleperceptual,80,responsePerceptual,,3.5,,58.33333333,1,,,18
189,1.60E+12,08/11/2020 13:29,1.60E+12,1,08/11/2020 14:29,12022,43,task-pf6t,,7648610,BLIND,2267201,,live,,,computer,Desktop or Laptop,Windows 7,Chrome 86.0.4240.183,1366x768,964x549,,Meta-Task,29,Meta-first,survey-likert,937,1962924,853,"{""Q0"":6}",,1,,simpleperceptual,80,confidencerating,1,3.5,1,59.33333333,1,,,18
190,1.60E+12,08/11/2020 13:29,1.60E+12,1,08/11/2020 14:29,12022,43,task-pf6t,,7648610,BLIND,2267201,,live,,,computer,Desktop or Laptop,Windows 7,Chrome 86.0.4240.183,1366x768,964x549,,Meta-Task,29,Meta-first,doublestim,944,1966851,23,,69,1,,simpleperceptual,81,responsePerceptual,,3.5,,59.33333333,1,,,18
191,1.60E+12,08/11/2020 13:30,1.60E+12,1,08/11/2020 14:30,12022,43,task-pf6t,,7648610,BLIND,2267201,,live,,,computer,Desktop or Laptop,Windows 7,Chrome 86.0.4240.183,1366x768,964x549,,Meta-Task,29,Meta-first,survey-likert,946,1968213,839,"{""Q0"":6}",,1,,simpleperceptual,81,confidencerating,1,3.5,1,60.33333333,1,,,18
192,1.60E+12,08/11/2020 13:30,1.60E+12,1,08/11/2020 14:30,12022,43,task-pf6t,,7648610,BLIND,2267201,,live,,,computer,Desktop or Laptop,Windows 7,Chrome 86.0.4240.183,1366x768,964x549,,Meta-Task,29,Meta-first,doublestim,953,1972429,310,,87,1,,simpleperceptual,82,responsePerceptual,,3.5,,60.33333333,1,,,18
193,1.60E+12,08/11/2020 13:30,1.60E+12,1,08/11/2020 14:30,12022,43,task-pf6t,,7648610,BLIND,2267201,,live,,,computer,Desktop or Laptop,Windows 7,Chrome 86.0.4240.183,1366x768,964x549,,Meta-Task,29,Meta-first,survey-likert,955,1974095,1142,"{""Q0"":6}",,1,,simpleperceptual,82,confidencerating,1,3.5,1,61.33333333,1,,,18
194,1.60E+12,08/11/2020 13:30,1.60E+12,1,08/11/2020 14:30,12022,43,task-pf6t,,7648610,BLIND,2267201,,live,,,computer,Desktop or Laptop,Windows 7,Chrome 86.0.4240.183,1366x768,964x549,,Meta-Task,29,Meta-first,doublestim,962,1978086,85,,87,1,,simpleperceptual,83,responsePerceptual,,3.5,,61.33333333,1,,,18
195,1.60E+12,08/11/2020 13:30,1.60E+12,1,08/11/2020 14:30,12022,43,task-pf6t,,7648610,BLIND,2267201,,live,,,computer,Desktop or Laptop,Windows 7,Chrome 86.0.4240.183,1366x768,964x549,,Meta-Task,29,Meta-first,survey-likert,964,1979709,1100,"{""Q0"":6}",,1,,simpleperceptual,83,confidencerating,1,3.5,1,62.33333333,1,,,18
196,1.60E+12,08/11/2020 13:30,1.60E+12,1,08/11/2020 14:30,12022,43,task-pf6t,,7648610,BLIND,2267201,,live,,,computer,Desktop or Laptop,Windows 7,Chrome 86.0.4240.183,1366x768,964x549,,Meta-Task,29,Meta-first,doublestim,971,1983709,99,,69,,,simpleperceptual,84,responsePerceptual,,3.5,,62.33333333,1,,,18
197,1.60E+12,08/11/2020 13:30,1.60E+12,1,08/11/2020 14:30,12022,43,task-pf6t,,7648610,BLIND,2267201,,live,,,computer,Desktop or Laptop,Windows 7,Chrome 86.0.4240.183,1366x768,964x549,,Meta-Task,29,Meta-first,survey-likert,973,1985409,1179,"{""Q0"":1}",,,,simpleperceptual,84,confidencerating,0.166666667,3.5,0.972222222,63.30555556,1,,,18
198,1.60E+12,08/11/2020 13:32,1.60E+12,1,08/11/2020 14:32,12022,43,task-pf6t,,7648610,BLIND,2267201,,live,,,computer,Desktop or Laptop,Windows 7,Chrome 86.0.4240.183,1366x768,964x549,,Meta-Task,29,Meta-first,doublestim,981,2134076,1021,,69,,,simpleperceptual,85,responsePerceptual,,3.5,,63.30555556,1,,,18
199,1.60E+12,08/11/2020 13:32,1.60E+12,1,08/11/2020 14:32,12022,43,task-pf6t,,7648610,BLIND,2267201,,live,,,computer,Desktop or Laptop,Windows 7,Chrome 86.0.4240.183,1366x768,964x549,,Meta-Task,29,Meta-first,survey-likert,983,2137170,2572,"{""Q0"":6}",,,,simpleperceptual,85,confidencerating,1,3.5,0,63.30555556,1,,,18
200,1.60E+12,08/11/2020 13:32,1.60E+12,1,08/11/2020 14:32,12022,43,task-pf6t,,7648610,BLIND,2267201,,live,,,computer,Desktop or Laptop,Windows 7,Chrome 86.0.4240.183,1366x768,964x549,,Meta-Task,29,Meta-first,doublestim,990,2142012,936,,69,,,simpleperceptual,86,responsePerceptual,,3.5,,63.30555556,1,,,18
201,1.60E+12,08/11/2020 13:32,1.60E+12,1,08/11/2020 14:32,12022,43,task-pf6t,,7648610,BLIND,2267201,,live,,,computer,Desktop or Laptop,Windows 7,Chrome 86.0.4240.183,1366x768,964x549,,Meta-Task,29,Meta-first,survey-likert,992,2143750,1212,"{""Q0"":6}",,,,simpleperceptual,86,confidencerating,1,3.5,0,63.30555556,1,,,18
202,1.60E+12,08/11/2020 13:33,1.60E+12,1,08/11/2020 14:33,12022,43,task-pf6t,,7648610,BLIND,2267201,,live,,,computer,Desktop or Laptop,Windows 7,Chrome 86.0.4240.183,1366x768,964x549,,Meta-Task,29,Meta-first,doublestim,999,2148772,1118,,69,1,,simpleperceptual,87,responsePerceptual,,3.5,,63.30555556,1,,,18
203,1.60E+12,08/11/2020 13:33,1.60E+12,1,08/11/2020 14:33,12022,43,task-pf6t,,7648610,BLIND,2267201,,live,,,computer,Desktop or Laptop,Windows 7,Chrome 86.0.4240.183,1366x768,964x549,,Meta-Task,29,Meta-first,survey-likert,1001,2150431,1136,"{""Q0"":1}",,1,,simpleperceptual,87,confidencerating,0.166666667,3.5,0.305555556,63.61111111,1,,,18
204,1.60E+12,08/11/2020 13:33,1.60E+12,1,08/11/2020 14:33,12022,43,task-pf6t,,7648610,BLIND,2267201,,live,,,computer,Desktop or Laptop,Windows 7,Chrome 86.0.4240.183,1366x768,964x549,,Meta-Task,29,Meta-first,doublestim,1008,2155763,1430,,87,1,,simpleperceptual,88,responsePerceptual,,3.5,,63.61111111,1,,,18
205,1.60E+12,08/11/2020 13:33,1.60E+12,1,08/11/2020 14:33,12022,43,task-pf6t,,7648610,BLIND,2267201,,live,,,computer,Desktop or Laptop,Windows 7,Chrome 86.0.4240.183,1366x768,964x549,,Meta-Task,29,Meta-first,survey-likert,1010,2157309,1023,"{""Q0"":6}",,1,,simpleperceptual,88,confidencerating,1,3.5,1,64.61111111,1,,,18
206,1.60E+12,08/11/2020 13:33,1.60E+12,1,08/11/2020 14:33,12022,43,task-pf6t,,7648610,BLIND,2267201,,live,,,computer,Desktop or Laptop,Windows 7,Chrome 86.0.4240.183,1366x768,964x549,,Meta-Task,29,Meta-first,doublestim,1017,2161723,503,,87,1,,simpleperceptual,89,responsePerceptual,,3.5,,64.61111111,1,,,18
207,1.60E+12,08/11/2020 13:33,1.60E+12,1,08/11/2020 14:33,12022,43,task-pf6t,,7648610,BLIND,2267201,,live,,,computer,Desktop or Laptop,Windows 7,Chrome 86.0.4240.183,1366x768,964x549,,Meta-Task,29,Meta-first,survey-likert,1019,2163203,958,"{""Q0"":1}",,1,,simpleperceptual,89,confidencerating,0.166666667,3.5,0.305555556,64.91666667,1,,,18
208,1.60E+12,08/11/2020 13:33,1.60E+12,1,08/11/2020 14:33,12022,43,task-pf6t,,7648610,BLIND,2267201,,live,,,computer,Desktop or Laptop,Windows 7,Chrome 86.0.4240.183,1366x768,964x549,,Meta-Task,29,Meta-first,doublestim,1026,2167419,312,,69,1,,simpleperceptual,90,responsePerceptual,,3.5,,64.91666667,1,,,18
209,1.60E+12,08/11/2020 13:33,1.60E+12,1,08/11/2020 14:33,12022,43,task-pf6t,,7648610,BLIND,2267201,,live,,,computer,Desktop or Laptop,Windows 7,Chrome 86.0.4240.183,1366x768,964x549,,Meta-Task,29,Meta-first,survey-likert,1028,2169445,1505,"{""Q0"":6}",,1,,simpleperceptual,90,confidencerating,1,3.5,1,65.91666667,1,,,18
210,1.60E+12,08/11/2020 13:33,1.60E+12,1,08/11/2020 14:33,12022,43,task-pf6t,,7648610,BLIND,2267201,,live,,,computer,Desktop or Laptop,Windows 7,Chrome 86.0.4240.183,1366x768,964x549,,Meta-Task,29,Meta-first,doublestim,1035,2174027,677,,87,1,,simpleperceptual,91,responsePerceptual,,3.5,,65.91666667,1,,,18
211,1.60E+12,08/11/2020 13:33,1.60E+12,1,08/11/2020 14:33,12022,43,task-pf6t,,7648610,BLIND,2267201,,live,,,computer,Desktop or Laptop,Windows 7,Chrome 86.0.4240.183,1366x768,964x549,,Meta-Task,29,Meta-first,survey-likert,1037,2175827,1276,"{""Q0"":6}",,1,,simpleperceptual,91,confidencerating,1,3.5,1,66.91666667,1,,,18
212,1.60E+12,08/11/2020 13:33,1.60E+12,1,08/11/2020 14:33,12022,43,task-pf6t,,7648610,BLIND,2267201,,live,,,computer,Desktop or Laptop,Windows 7,Chrome 86.0.4240.183,1366x768,964x549,,Meta-Task,29,Meta-first,doublestim,1044,2180379,648,,87,1,,simpleperceptual,92,responsePerceptual,,3.5,,66.91666667,1,,,18
213,1.60E+12,08/11/2020 13:33,1.60E+12,1,08/11/2020 14:33,12022,43,task-pf6t,,7648610,BLIND,2267201,,live,,,computer,Desktop or Laptop,Windows 7,Chrome 86.0.4240.183,1366x768,964x549,,Meta-Task,29,Meta-first,survey-likert,1046,2181919,1016,"{""Q0"":1}",,1,,simpleperceptual,92,confidencerating,0.166666667,3.5,0.305555556,67.22222222,1,,,18
214,1.60E+12,08/11/2020 13:33,1.60E+12,1,08/11/2020 14:33,12022,43,task-pf6t,,7648610,BLIND,2267201,,live,,,computer,Desktop or Laptop,Windows 7,Chrome 86.0.4240.183,1366x768,964x549,,Meta-Task,29,Meta-first,doublestim,1053,2186443,621,,69,,,simpleperceptual,93,responsePerceptual,,3.5,,67.22222222,1,,,18
215,1.60E+12,08/11/2020 13:33,1.60E+12,1,08/11/2020 14:33,12022,43,task-pf6t,,7648610,BLIND,2267201,,live,,,computer,Desktop or Laptop,Windows 7,Chrome 86.0.4240.183,1366x768,964x549,,Meta-Task,29,Meta-first,survey-likert,1055,2189584,2616,"{""Q0"":1}",,,,simpleperceptual,93,confidencerating,0.166666667,3.5,0.972222222,68.19444444,1,,,18
216,1.60E+12,08/11/2020 13:33,1.60E+12,1,08/11/2020 14:33,12022,43,task-pf6t,,7648610,BLIND,2267201,,live,,,computer,Desktop or Laptop,Windows 7,Chrome 86.0.4240.183,1366x768,964x549,,Meta-Task,29,Meta-first,doublestim,1062,2193718,231,,69,1,,simpleperceptual,94,responsePerceptual,,3.5,,68.19444444,1,,,18
217,1.60E+12,08/11/2020 13:33,1.60E+12,1,08/11/2020 14:33,12022,43,task-pf6t,,7648610,BLIND,2267201,,live,,,computer,Desktop or Laptop,Windows 7,Chrome 86.0.4240.183,1366x768,964x549,,Meta-Task,29,Meta-first,survey-likert,1064,2195344,1088,"{""Q0"":6}",,1,,simpleperceptual,94,confidencerating,1,3.5,1,69.19444444,1,,,18
218,1.60E+12,08/11/2020 13:33,1.60E+12,1,08/11/2020 14:33,12022,43,task-pf6t,,7648610,BLIND,2267201,,live,,,computer,Desktop or Laptop,Windows 7,Chrome 86.0.4240.183,1366x768,964x549,,Meta-Task,29,Meta-first,doublestim,1071,2200348,1099,,69,1,,simpleperceptual,95,responsePerceptual,,3.5,,69.19444444,1,,,18
219,1.60E+12,08/11/2020 13:33,1.60E+12,1,08/11/2020 14:33,12022,43,task-pf6t,,7648610,BLIND,2267201,,live,,,computer,Desktop or Laptop,Windows 7,Chrome 86.0.4240.183,1366x768,964x549,,Meta-Task,29,Meta-first,survey-likert,1073,2202544,1672,"{""Q0"":1}",,1,,simpleperceptual,95,confidencerating,0.166666667,3.5,0.305555556,69.5,1,,,18
220,1.60E+12,08/11/2020 13:34,1.60E+12,1,08/11/2020 14:34,12022,43,task-pf6t,,7648610,BLIND,2267201,,live,,,computer,Desktop or Laptop,Windows 7,Chrome 86.0.4240.183,1366x768,964x549,,Meta-Task,29,Meta-first,doublestim,1080,2208179,1731,,69,,,simpleperceptual,96,responsePerceptual,,3.5,,69.5,1,,,18
221,1.60E+12,08/11/2020 13:34,1.60E+12,1,08/11/2020 14:34,12022,43,task-pf6t,,7648610,BLIND,2267201,,live,,,computer,Desktop or Laptop,Windows 7,Chrome 86.0.4240.183,1366x768,964x549,,Meta-Task,29,Meta-first,survey-likert,1082,2209759,1057,"{""Q0"":6}",,,,simpleperceptual,96,confidencerating,1,3.5,0,69.5,1,,,18
222,1.60E+12,08/11/2020 13:34,1.60E+12,1,08/11/2020 14:34,12022,43,task-pf6t,,7648610,BLIND,2267201,,live,,,computer,Desktop or Laptop,Windows 7,Chrome 86.0.4240.183,1366x768,964x549,,Meta-Task,29,Meta-first,doublestim,1089,2214123,459,,87,1,,simpleperceptual,97,responsePerceptual,,3.5,,69.5,1,,,18
223,1.60E+12,08/11/2020 13:34,1.60E+12,1,08/11/2020 14:34,12022,43,task-pf6t,,7648610,BLIND,2267201,,live,,,computer,Desktop or Laptop,Windows 7,Chrome 86.0.4240.183,1366x768,964x549,,Meta-Task,29,Meta-first,survey-likert,1091,2215829,1184,"{""Q0"":1}",,1,,simpleperceptual,97,confidencerating,0.166666667,3.5,0.305555556,69.80555556,1,,,18
224,1.60E+12,08/11/2020 13:34,1.60E+12,1,08/11/2020 14:34,12022,43,task-pf6t,,7648610,BLIND,2267201,,live,,,computer,Desktop or Laptop,Windows 7,Chrome 86.0.4240.183,1366x768,964x549,,Meta-Task,29,Meta-first,doublestim,1098,2219843,111,,69,,,simpleperceptual,98,responsePerceptual,,3.5,,69.80555556,1,,,18
225,1.60E+12,08/11/2020 13:34,1.60E+12,1,08/11/2020 14:34,12022,43,task-pf6t,,7648610,BLIND,2267201,,live,,,computer,Desktop or Laptop,Windows 7,Chrome 86.0.4240.183,1366x768,964x549,,Meta-Task,29,Meta-first,survey-likert,1100,2221363,996,"{""Q0"":1}",,,,simpleperceptual,98,confidencerating,0.166666667,3.5,0.972222222,70.77777778,1,,,18
226,1.60E+12,08/11/2020 13:34,1.60E+12,1,08/11/2020 14:34,12022,43,task-pf6t,,7648610,BLIND,2267201,,live,,,computer,Desktop or Laptop,Windows 7,Chrome 86.0.4240.183,1366x768,964x549,,Meta-Task,29,Meta-first,doublestim,1107,2226339,1070,,69,,,simpleperceptual,99,responsePerceptual,,3.5,,70.77777778,1,,,18
227,1.60E+12,08/11/2020 13:34,1.60E+12,1,08/11/2020 14:34,12022,43,task-pf6t,,7648610,BLIND,2267201,,live,,,computer,Desktop or Laptop,Windows 7,Chrome 86.0.4240.183,1366x768,964x549,,Meta-Task,29,Meta-first,survey-likert,1109,2227997,1136,"{""Q0"":1}",,,,simpleperceptual,99,confidencerating,0.166666667,3.5,0.972222222,71.75,1,,,18
228,1.60E+12,08/11/2020 13:34,1.60E+12,1,08/11/2020 14:34,12022,43,task-pf6t,,7648610,BLIND,2267201,,live,,,computer,Desktop or Laptop,Windows 7,Chrome 86.0.4240.183,1366x768,964x549,,Meta-Task,29,Meta-first,doublestim,1116,2231979,77,,87,,,simpleperceptual,100,responsePerceptual,,3.5,,71.75,1,,,18
229,1.60E+12,08/11/2020 13:34,1.60E+12,1,08/11/2020 14:34,12022,43,task-pf6t,,7648610,BLIND,2267201,,live,,,computer,Desktop or Laptop,Windows 7,Chrome 86.0.4240.183,1366x768,964x549,,Meta-Task,29,Meta-first,survey-likert,1118,2233656,1154,"{""Q0"":1}",,,,simpleperceptual,100,confidencerating,0.166666667,3.5,0.972222222,72.72222222,1,,,18
230,1.60E+12,08/11/2020 13:34,1.60E+12,1,08/11/2020 14:34,12022,43,task-pf6t,,7648610,BLIND,2267201,,live,,,computer,Desktop or Laptop,Windows 7,Chrome 86.0.4240.183,1366x768,964x549,,Meta-Task,29,Meta-first,doublestim,1125,2237714,153,,69,1,,simpleperceptual,101,responsePerceptual,,3.5,,72.72222222,1,,,18
231,1.60E+12,08/11/2020 13:34,1.60E+12,1,08/11/2020 14:34,12022,43,task-pf6t,,7648610,BLIND,2267201,,live,,,computer,Desktop or Laptop,Windows 7,Chrome 86.0.4240.183,1366x768,964x549,,Meta-Task,29,Meta-first,survey-likert,1127,2239449,1210,"{""Q0"":6}",,1,,simpleperceptual,101,confidencerating,1,3.5,1,73.72222222,1,,,18
232,1.60E+12,08/11/2020 13:34,1.60E+12,1,08/11/2020 14:34,12022,43,task-pf6t,,7648610,BLIND,2267201,,live,,,computer,Desktop or Laptop,Windows 7,Chrome 86.0.4240.183,1366x768,964x549,,Meta-Task,29,Meta-first,doublestim,1134,2243563,211,,87,1,,simpleperceptual,102,responsePerceptual,,3.5,,73.72222222,1,,,18
233,1.60E+12,08/11/2020 13:34,1.60E+12,1,08/11/2020 14:34,12022,43,task-pf6t,,7648610,BLIND,2267201,,live,,,computer,Desktop or Laptop,Windows 7,Chrome 86.0.4240.183,1366x768,964x549,,Meta-Task,29,Meta-first,survey-likert,1136,2245100,1011,"{""Q0"":6}",,1,,simpleperceptual,102,confidencerating,1,3.5,1,74.72222222,1,,,18
234,1.60E+12,08/11/2020 13:34,1.60E+12,1,08/11/2020 14:34,12022,43,task-pf6t,,7648610,BLIND,2267201,,live,,,computer,Desktop or Laptop,Windows 7,Chrome 86.0.4240.183,1366x768,964x549,,Meta-Task,29,Meta-first,doublestim,1143,2249771,766,,69,,,simpleperceptual,103,responsePerceptual,,3.5,,74.72222222,1,,,18
235,1.60E+12,08/11/2020 13:34,1.60E+12,1,08/11/2020 14:34,12022,43,task-pf6t,,7648610,BLIND,2267201,,live,,,computer,Desktop or Laptop,Windows 7,Chrome 86.0.4240.183,1366x768,964x549,,Meta-Task,29,Meta-first,survey-likert,1145,2251711,1416,"{""Q0"":1}",,,,simpleperceptual,103,confidencerating,0.166666667,3.5,0.972222222,75.69444444,1,,,18
236,1.60E+12,08/11/2020 13:34,1.60E+12,1,08/11/2020 14:34,12022,43,task-pf6t,,7648610,BLIND,2267201,,live,,,computer,Desktop or Laptop,Windows 7,Chrome 86.0.4240.183,1366x768,964x549,,Meta-Task,29,Meta-first,doublestim,1152,2256243,627,,69,1,,simpleperceptual,104,responsePerceptual,,3.5,,75.69444444,1,,,18
237,1.60E+12,08/11/2020 13:34,1.60E+12,1,08/11/2020 14:34,12022,43,task-pf6t,,7648610,BLIND,2267201,,live,,,computer,Desktop or Laptop,Windows 7,Chrome 86.0.4240.183,1366x768,964x549,,Meta-Task,29,Meta-first,survey-likert,1154,2259257,2490,"{""Q0"":6}",,1,,simpleperceptual,104,confidencerating,1,3.5,1,76.69444444,1,,,18
238,1.60E+12,08/11/2020 13:34,1.60E+12,1,08/11/2020 14:34,12022,43,task-pf6t,,7648610,BLIND,2267201,,live,,,computer,Desktop or Laptop,Windows 7,Chrome 86.0.4240.183,1366x768,964x549,,Meta-Task,29,Meta-first,doublestim,1161,2263522,363,,69,1,,simpleperceptual,105,responsePerceptual,,3.5,,76.69444444,1,,,18
239,1.60E+12,08/11/2020 13:35,1.60E+12,1,08/11/2020 14:35,12022,43,task-pf6t,,7648610,BLIND,2267201,,live,,,computer,Desktop or Laptop,Windows 7,Chrome 86.0.4240.183,1366x768,964x549,,Meta-Task,29,Meta-first,survey-likert,1163,2267920,3874,"{""Q0"":1}",,1,,simpleperceptual,105,confidencerating,0.166666667,3.5,0.305555556,77,1,,,18
240,1.60E+12,08/11/2020 13:35,1.60E+12,1,08/11/2020 14:35,12022,43,task-pf6t,,7648610,BLIND,2267201,,live,,,computer,Desktop or Laptop,Windows 7,Chrome 86.0.4240.183,1366x768,964x549,,Meta-Task,29,Meta-first,doublestim,1170,2272674,850,,87,,,simpleperceptual,106,responsePerceptual,,3.5,,77,1,,,18
241,1.60E+12,08/11/2020 13:35,1.60E+12,1,08/11/2020 14:35,12022,43,task-pf6t,,7648610,BLIND,2267201,,live,,,computer,Desktop or Laptop,Windows 7,Chrome 86.0.4240.183,1366x768,964x549,,Meta-Task,29,Meta-first,survey-likert,1172,2274348,1151,"{""Q0"":1}",,,,simpleperceptual,106,confidencerating,0.166666667,3.5,0.972222222,77.97222222,1,,,18
242,1.60E+12,08/11/2020 13:35,1.60E+12,1,08/11/2020 14:35,12022,43,task-pf6t,,7648610,BLIND,2267201,,live,,,computer,Desktop or Laptop,Windows 7,Chrome 86.0.4240.183,1366x768,964x549,,Meta-Task,29,Meta-first,doublestim,1179,2279266,1014,,69,1,,simpleperceptual,107,responsePerceptual,,3.5,,77.97222222,1,,,18
243,1.60E+12,08/11/2020 13:35,1.60E+12,1,08/11/2020 14:35,12022,43,task-pf6t,,7648610,BLIND,2267201,,live,,,computer,Desktop or Laptop,Windows 7,Chrome 86.0.4240.183,1366x768,964x549,,Meta-Task,29,Meta-first,survey-likert,1181,2280872,1081,"{""Q0"":6}",,1,,simpleperceptual,107,confidencerating,1,3.5,1,78.97222222,1,,,18
244,1.60E+12,08/11/2020 13:35,1.60E+12,1,08/11/2020 14:35,12022,43,task-pf6t,,7648610,BLIND,2267201,,live,,,computer,Desktop or Laptop,Windows 7,Chrome 86.0.4240.183,1366x768,964x549,,Meta-Task,29,Meta-first,doublestim,1188,2284834,57,,69,1,,simpleperceptual,108,responsePerceptual,,3.5,,78.97222222,1,,,18
245,1.60E+12,08/11/2020 13:35,1.60E+12,1,08/11/2020 14:35,12022,43,task-pf6t,,7648610,BLIND,2267201,,live,,,computer,Desktop or Laptop,Windows 7,Chrome 86.0.4240.183,1366x768,964x549,,Meta-Task,29,Meta-first,survey-likert,1190,2286508,1150,"{""Q0"":6}",,1,,simpleperceptual,108,confidencerating,1,3.5,1,79.97222222,1,,,18
246,1.60E+12,08/11/2020 13:35,1.60E+12,1,08/11/2020 14:35,12022,43,task-pf6t,,7648610,BLIND,2267201,,live,,,computer,Desktop or Laptop,Windows 7,Chrome 86.0.4240.183,1366x768,964x549,,Meta-Task,29,Meta-first,doublestim,1197,2290498,86,,69,1,,simpleperceptual,109,responsePerceptual,,3.5,,79.97222222,1,,,18
247,1.60E+12,08/11/2020 13:35,1.60E+12,1,08/11/2020 14:35,12022,43,task-pf6t,,7648610,BLIND,2267201,,live,,,computer,Desktop or Laptop,Windows 7,Chrome 86.0.4240.183,1366x768,964x549,,Meta-Task,29,Meta-first,survey-likert,1199,2292576,1552,"{""Q0"":6}",,1,,simpleperceptual,109,confidencerating,1,3.5,1,80.97222222,1,,,18
248,1.60E+12,08/11/2020 13:35,1.60E+12,1,08/11/2020 14:35,12022,43,task-pf6t,,7648610,BLIND,2267201,,live,,,computer,Desktop or Laptop,Windows 7,Chrome 86.0.4240.183,1366x768,964x549,,Meta-Task,29,Meta-first,doublestim,1206,2296610,128,,87,1,,simpleperceptual,110,responsePerceptual,,3.5,,80.97222222,1,,,18
249,1.60E+12,08/11/2020 13:35,1.60E+12,1,08/11/2020 14:35,12022,43,task-pf6t,,7648610,BLIND,2267201,,live,,,computer,Desktop or Laptop,Windows 7,Chrome 86.0.4240.183,1366x768,964x549,,Meta-Task,29,Meta-first,survey-likert,1208,2299099,1965,"{""Q0"":1}",,1,,simpleperceptual,110,confidencerating,0.166666667,3.5,0.305555556,81.27777778,1,,,18
250,1.60E+12,08/11/2020 13:35,1.60E+12,1,08/11/2020 14:35,12022,43,task-pf6t,,7648610,BLIND,2267201,,live,,,computer,Desktop or Laptop,Windows 7,Chrome 86.0.4240.183,1366x768,964x549,,Meta-Task,29,Meta-first,doublestim,1215,2303242,235,,69,1,,simpleperceptual,111,responsePerceptual,,3.5,,81.27777778,1,,,18
251,1.60E+12,08/11/2020 13:35,1.60E+12,1,08/11/2020 14:35,12022,43,task-pf6t,,7648610,BLIND,2267201,,live,,,computer,Desktop or Laptop,Windows 7,Chrome 86.0.4240.183,1366x768,964x549,,Meta-Task,29,Meta-first,survey-likert,1217,2304625,860,"{""Q0"":6}",,1,,simpleperceptual,111,confidencerating,1,3.5,1,82.27777778,1,,,18
252,1.60E+12,08/11/2020 13:35,1.60E+12,1,08/11/2020 14:35,12022,43,task-pf6t,,7648610,BLIND,2267201,,live,,,computer,Desktop or Laptop,Windows 7,Chrome 86.0.4240.183,1366x768,964x549,,Meta-Task,29,Meta-first,doublestim,1224,2308585,56,,69,,,simpleperceptual,112,responsePerceptual,,3.5,,82.27777778,1,,,18
253,1.60E+12,08/11/2020 13:35,1.60E+12,1,08/11/2020 14:35,12022,43,task-pf6t,,7648610,BLIND,2267201,,live,,,computer,Desktop or Laptop,Windows 7,Chrome 86.0.4240.183,1366x768,964x549,,Meta-Task,29,Meta-first,survey-likert,1226,2310373,1264,"{""Q0"":1}",,,,simpleperceptual,112,confidencerating,0.166666667,3.5,0.972222222,83.25,1,,,18
254,1.60E+12,08/11/2020 13:35,1.60E+12,1,08/11/2020 14:35,12022,43,task-pf6t,,7648610,BLIND,2267201,,live,,,computer,Desktop or Laptop,Windows 7,Chrome 86.0.4240.183,1366x768,964x549,,Meta-Task,29,Meta-first,doublestim,1233,2315075,798,,87,1,,simpleperceptual,113,responsePerceptual,,3.5,,83.25,1,,,18
255,1.60E+12,08/11/2020 13:35,1.60E+12,1,08/11/2020 14:35,12022,43,task-pf6t,,7648610,BLIND,2267201,,live,,,computer,Desktop or Laptop,Windows 7,Chrome 86.0.4240.183,1366x768,964x549,,Meta-Task,29,Meta-first,survey-likert,1235,2316872,1275,"{""Q0"":6}",,1,,simpleperceptual,113,confidencerating,1,3.5,1,84.25,1,,,18
256,1.60E+12,08/11/2020 13:35,1.60E+12,1,08/11/2020 14:35,12022,43,task-pf6t,,7648610,BLIND,2267201,,live,,,computer,Desktop or Laptop,Windows 7,Chrome 86.0.4240.183,1366x768,964x549,,Meta-Task,29,Meta-first,doublestim,1242,2321618,842,,87,1,,simpleperceptual,114,responsePerceptual,,3.5,,84.25,1,,,18
257,1.60E+12,08/11/2020 13:35,1.60E+12,1,08/11/2020 14:35,12022,43,task-pf6t,,7648610,BLIND,2267201,,live,,,computer,Desktop or Laptop,Windows 7,Chrome 86.0.4240.183,1366x768,964x549,,Meta-Task,29,Meta-first,survey-likert,1244,2323906,1763,"{""Q0"":6}",,1,,simpleperceptual,114,confidencerating,1,3.5,1,85.25,1,,,18
258,1.60E+12,08/11/2020 13:36,1.60E+12,1,08/11/2020 14:36,12022,43,task-pf6t,,7648610,BLIND,2267201,,live,,,computer,Desktop or Laptop,Windows 7,Chrome 86.0.4240.183,1366x768,964x549,,Meta-Task,29,Meta-first,doublestim,1251,2328371,559,,69,1,,simpleperceptual,115,responsePerceptual,,3.5,,85.25,1,,,18
259,1.60E+12,08/11/2020 13:36,1.60E+12,1,08/11/2020 14:36,12022,43,task-pf6t,,7648610,BLIND,2267201,,live,,,computer,Desktop or Laptop,Windows 7,Chrome 86.0.4240.183,1366x768,964x549,,Meta-Task,29,Meta-first,survey-likert,1253,2329590,696,"{""Q0"":6}",,1,,simpleperceptual,115,confidencerating,1,3.5,1,86.25,1,,,18
260,1.60E+12,08/11/2020 13:36,1.60E+12,1,08/11/2020 14:36,12022,43,task-pf6t,,7648610,BLIND,2267201,,live,,,computer,Desktop or Laptop,Windows 7,Chrome 86.0.4240.183,1366x768,964x549,,Meta-Task,29,Meta-first,doublestim,1260,2333514,19,,87,1,,simpleperceptual,116,responsePerceptual,,3.5,,86.25,1,,,18
261,1.60E+12,08/11/2020 13:36,1.60E+12,1,08/11/2020 14:36,12022,43,task-pf6t,,7648610,BLIND,2267201,,live,,,computer,Desktop or Laptop,Windows 7,Chrome 86.0.4240.183,1366x768,964x549,,Meta-Task,29,Meta-first,survey-likert,1262,2335532,1496,"{""Q0"":6}",,1,,simpleperceptual,116,confidencerating,1,3.5,1,87.25,1,,,18
262,1.60E+12,08/11/2020 13:36,1.60E+12,1,08/11/2020 14:36,12022,43,task-pf6t,,7648610,BLIND,2267201,,live,,,computer,Desktop or Laptop,Windows 7,Chrome 86.0.4240.183,1366x768,964x549,,Meta-Task,29,Meta-first,doublestim,1269,2339650,214,,69,1,,simpleperceptual,117,responsePerceptual,,3.5,,87.25,1,,,18
263,1.60E+12,08/11/2020 13:36,1.60E+12,1,08/11/2020 14:36,12022,43,task-pf6t,,7648610,BLIND,2267201,,live,,,computer,Desktop or Laptop,Windows 7,Chrome 86.0.4240.183,1366x768,964x549,,Meta-Task,29,Meta-first,survey-likert,1271,2341646,1472,"{""Q0"":6}",,1,,simpleperceptual,117,confidencerating,1,3.5,1,88.25,1,,,18
264,1.60E+12,08/11/2020 13:36,1.60E+12,1,08/11/2020 14:36,12022,43,task-pf6t,,7648610,BLIND,2267201,,live,,,computer,Desktop or Laptop,Windows 7,Chrome 86.0.4240.183,1366x768,964x549,,Meta-Task,29,Meta-first,doublestim,1278,2346154,603,,87,1,,simpleperceptual,118,responsePerceptual,,3.5,,88.25,1,,,18
265,1.60E+12,08/11/2020 13:36,1.60E+12,1,08/11/2020 14:36,12022,43,task-pf6t,,7648610,BLIND,2267201,,live,,,computer,Desktop or Laptop,Windows 7,Chrome 86.0.4240.183,1366x768,964x549,,Meta-Task,29,Meta-first,survey-likert,1280,2348028,1349,"{""Q0"":6}",,1,,simpleperceptual,118,confidencerating,1,3.5,1,89.25,1,,,18
266,1.60E+12,08/11/2020 13:36,1.60E+12,1,08/11/2020 14:36,12022,43,task-pf6t,,7648610,BLIND,2267201,,live,,,computer,Desktop or Laptop,Windows 7,Chrome 86.0.4240.183,1366x768,964x549,,Meta-Task,29,Meta-first,doublestim,1287,2352289,360,,69,1,,simpleperceptual,119,responsePerceptual,,3.5,,89.25,1,,,18
267,1.60E+12,08/11/2020 13:36,1.60E+12,1,08/11/2020 14:36,12022,43,task-pf6t,,7648610,BLIND,2267201,,live,,,computer,Desktop or Laptop,Windows 7,Chrome 86.0.4240.183,1366x768,964x549,,Meta-Task,29,Meta-first,survey-likert,1289,2353881,1069,"{""Q0"":6}",,1,,simpleperceptual,119,confidencerating,1,3.5,1,90.25,1,,,18
268,1.60E+12,08/11/2020 13:36,1.60E+12,1,08/11/2020 14:36,12022,43,task-pf6t,,7648610,BLIND,2267201,,live,,,computer,Desktop or Laptop,Windows 7,Chrome 86.0.4240.183,1366x768,964x549,,Meta-Task,29,Meta-first,doublestim,1296,2357905,118,,87,1,,simpleperceptual,120,responsePerceptual,,3.5,,90.25,1,,,18
269,1.60E+12,08/11/2020 13:36,1.60E+12,1,08/11/2020 14:36,12022,43,task-pf6t,,7648610,BLIND,2267201,,live,,,computer,Desktop or Laptop,Windows 7,Chrome 86.0.4240.183,1366x768,964x549,,Meta-Task,29,Meta-first,survey-likert,1298,2361135,2707,"{""Q0"":6}",,1,,simpleperceptual,120,confidencerating,1,3.5,1,91.25,1,,,18
270,1.60E+12,08/11/2020 13:36,1.60E+12,1,08/11/2020 14:36,12022,43,task-pf6t,,7648610,BLIND,2267201,,live,,,computer,Desktop or Laptop,Windows 7,Chrome 86.0.4240.183,1366x768,964x549,,Meta-Task,29,Meta-first,doublestim,1305,2365641,600,,87,1,,simpleperceptual,121,responsePerceptual,,3.5,,91.25,1,,,18
271,1.60E+12,08/11/2020 13:36,1.60E+12,1,08/11/2020 14:36,12022,43,task-pf6t,,7648610,BLIND,2267201,,live,,,computer,Desktop or Laptop,Windows 7,Chrome 86.0.4240.183,1366x768,964x549,,Meta-Task,29,Meta-first,survey-likert,1307,2367281,1117,"{""Q0"":6}",,1,,simpleperceptual,121,confidencerating,1,3.5,1,92.25,1,,,18
272,1.60E+12,08/11/2020 13:36,1.60E+12,1,08/11/2020 14:36,12022,43,task-pf6t,,7648610,BLIND,2267201,,live,,,computer,Desktop or Laptop,Windows 7,Chrome 86.0.4240.183,1366x768,964x549,,Meta-Task,29,Meta-first,doublestim,1314,2371618,430,,87,1,,simpleperceptual,122,responsePerceptual,,3.5,,92.25,1,,,18
273,1.60E+12,08/11/2020 13:36,1.60E+12,1,08/11/2020 14:36,12022,43,task-pf6t,,7648610,BLIND,2267201,,live,,,computer,Desktop or Laptop,Windows 7,Chrome 86.0.4240.183,1366x768,964x549,,Meta-Task,29,Meta-first,survey-likert,1316,2373350,1208,"{""Q0"":6}",,1,,simpleperceptual,122,confidencerating,1,3.5,1,93.25,1,,,18
274,1.60E+12,08/11/2020 13:36,1.60E+12,1,08/11/2020 14:36,12022,43,task-pf6t,,7648610,BLIND,2267201,,live,,,computer,Desktop or Laptop,Windows 7,Chrome 86.0.4240.183,1366x768,964x549,,Meta-Task,29,Meta-first,doublestim,1323,2377602,349,,69,1,,simpleperceptual,123,responsePerceptual,,3.5,,93.25,1,,,18
275,1.60E+12,08/11/2020 13:36,1.60E+12,1,08/11/2020 14:36,12022,43,task-pf6t,,7648610,BLIND,2267201,,live,,,computer,Desktop or Laptop,Windows 7,Chrome 86.0.4240.183,1366x768,964x549,,Meta-Task,29,Meta-first,survey-likert,1325,2379102,976,"{""Q0"":6}",,1,,simpleperceptual,123,confidencerating,1,3.5,1,94.25,1,,,18
276,1.60E+12,08/11/2020 13:36,1.60E+12,1,08/11/2020 14:36,12022,43,task-pf6t,,7648610,BLIND,2267201,,live,,,computer,Desktop or Laptop,Windows 7,Chrome 86.0.4240.183,1366x768,964x549,,Meta-Task,29,Meta-first,doublestim,1332,2383433,426,,87,1,,simpleperceptual,124,responsePerceptual,,3.5,,94.25,1,,,18
277,1.60E+12,08/11/2020 13:36,1.60E+12,1,08/11/2020 14:36,12022,43,task-pf6t,,7648610,BLIND,2267201,,live,,,computer,Desktop or Laptop,Windows 7,Chrome 86.0.4240.183,1366x768,964x549,,Meta-Task,29,Meta-first,survey-likert,1334,2384768,812,"{""Q0"":6}",,1,,simpleperceptual,124,confidencerating,1,3.5,1,95.25,1,,,18
278,1.60E+12,08/11/2020 13:37,1.60E+12,1,08/11/2020 14:37,12022,43,task-pf6t,,7648610,BLIND,2267201,,live,,,computer,Desktop or Laptop,Windows 7,Chrome 86.0.4240.183,1366x768,964x549,,Meta-Task,29,Meta-first,doublestim,1341,2388682,7,,87,1,,simpleperceptual,125,responsePerceptual,,3.5,,95.25,1,,,18
279,1.60E+12,08/11/2020 13:37,1.60E+12,1,08/11/2020 14:37,12022,43,task-pf6t,,7648610,BLIND,2267201,,live,,,computer,Desktop or Laptop,Windows 7,Chrome 86.0.4240.183,1366x768,964x549,,Meta-Task,29,Meta-first,survey-likert,1343,2391062,1856,"{""Q0"":6}",,1,,simpleperceptual,125,confidencerating,1,3.5,1,96.25,1,,,18
280,1.60E+12,08/11/2020 13:37,1.60E+12,1,08/11/2020 14:37,12022,43,task-pf6t,,7648610,BLIND,2267201,,live,,,computer,Desktop or Laptop,Windows 7,Chrome 86.0.4240.183,1366x768,964x549,,Meta-Task,29,Meta-first,doublestim,1350,2395753,786,,87,1,,simpleperceptual,126,responsePerceptual,,3.5,,96.25,1,,,18
281,1.60E+12,08/11/2020 13:37,1.60E+12,1,08/11/2020 14:37,12022,43,task-pf6t,,7648610,BLIND,2267201,,live,,,computer,Desktop or Laptop,Windows 7,Chrome 86.0.4240.183,1366x768,964x549,,Meta-Task,29,Meta-first,survey-likert,1352,2397285,1007,"{""Q0"":6}",,1,,simpleperceptual,126,confidencerating,1,3.5,1,97.25,1,,,18
282,1.60E+12,08/11/2020 13:37,1.60E+12,1,08/11/2020 14:37,12022,43,task-pf6t,,7648610,BLIND,2267201,,live,,,computer,Desktop or Laptop,Windows 7,Chrome 86.0.4240.183,1366x768,964x549,,Meta-Task,29,Meta-first,doublestim,1360,2404914,198,,69,,,simpleperceptual,127,responsePerceptual,,3.5,,97.25,1,,,18
283,1.60E+12,08/11/2020 13:37,1.60E+12,1,08/11/2020 14:37,12022,43,task-pf6t,,7648610,BLIND,2267201,,live,,,computer,Desktop or Laptop,Windows 7,Chrome 86.0.4240.183,1366x768,964x549,,Meta-Task,29,Meta-first,survey-likert,1362,2406651,1213,"{""Q0"":1}",,,,simpleperceptual,127,confidencerating,0.166666667,3.5,0.972222222,98.22222222,1,,,18
284,1.60E+12,08/11/2020 13:37,1.60E+12,1,08/11/2020 14:37,12022,43,task-pf6t,,7648610,BLIND,2267201,,live,,,computer,Desktop or Laptop,Windows 7,Chrome 86.0.4240.183,1366x768,964x549,,Meta-Task,29,Meta-first,doublestim,1369,2410833,274,,87,1,,simpleperceptual,128,responsePerceptual,,3.5,,98.22222222,1,,,18
285,1.60E+12,08/11/2020 13:37,1.60E+12,1,08/11/2020 14:37,12022,43,task-pf6t,,7648610,BLIND,2267201,,live,,,computer,Desktop or Laptop,Windows 7,Chrome 86.0.4240.183,1366x768,964x549,,Meta-Task,29,Meta-first,survey-likert,1371,2412473,1117,"{""Q0"":6}",,1,,simpleperceptual,128,confidencerating,1,3.5,1,99.22222222,1,,,18
286,1.60E+12,08/11/2020 13:37,1.60E+12,1,08/11/2020 14:37,12022,43,task-pf6t,,7648610,BLIND,2267201,,live,,,computer,Desktop or Laptop,Windows 7,Chrome 86.0.4240.183,1366x768,964x549,,Meta-Task,29,Meta-first,doublestim,1378,2416449,68,,69,1,,simpleperceptual,129,responsePerceptual,,3.5,,99.22222222,1,,,18
287,1.60E+12,08/11/2020 13:37,1.60E+12,1,08/11/2020 14:37,12022,43,task-pf6t,,7648610,BLIND,2267201,,live,,,computer,Desktop or Laptop,Windows 7,Chrome 86.0.4240.183,1366x768,964x549,,Meta-Task,29,Meta-first,survey-likert,1380,2418491,1520,"{""Q0"":6}",,1,,simpleperceptual,129,confidencerating,1,3.5,1,100.2222222,1,,,18
288,1.60E+12,08/11/2020 13:37,1.60E+12,1,08/11/2020 14:37,12022,43,task-pf6t,,7648610,BLIND,2267201,,live,,,computer,Desktop or Laptop,Windows 7,Chrome 86.0.4240.183,1366x768,964x549,,Meta-Task,29,Meta-first,doublestim,1387,2422433,38,,87,1,,simpleperceptual,130,responsePerceptual,,3.5,,100.2222222,1,,,18
289,1.60E+12,08/11/2020 13:37,1.60E+12,1,08/11/2020 14:37,12022,43,task-pf6t,,7648610,BLIND,2267201,,live,,,computer,Desktop or Laptop,Windows 7,Chrome 86.0.4240.183,1366x768,964x549,,Meta-Task,29,Meta-first,survey-likert,1389,2424054,1098,"{""Q0"":6}",,1,,simpleperceptual,130,confidencerating,1,3.5,1,101.2222222,1,,,18
290,1.60E+12,08/11/2020 13:37,1.60E+12,1,08/11/2020 14:37,12022,43,task-pf6t,,7648610,BLIND,2267201,,live,,,computer,Desktop or Laptop,Windows 7,Chrome 86.0.4240.183,1366x768,964x549,,Meta-Task,29,Meta-first,doublestim,1396,2428160,200,,69,,,simpleperceptual,131,responsePerceptual,,3.5,,101.2222222,1,,,18
291,1.60E+12,08/11/2020 13:37,1.60E+12,1,08/11/2020 14:37,12022,43,task-pf6t,,7648610,BLIND,2267201,,live,,,computer,Desktop or Laptop,Windows 7,Chrome 86.0.4240.183,1366x768,964x549,,Meta-Task,29,Meta-first,survey-likert,1398,2429730,1046,"{""Q0"":6}",,,,simpleperceptual,131,confidencerating,1,3.5,0,101.2222222,1,,,18
292,1.60E+12,08/11/2020 13:37,1.60E+12,1,08/11/2020 14:37,12022,43,task-pf6t,,7648610,BLIND,2267201,,live,,,computer,Desktop or Laptop,Windows 7,Chrome 86.0.4240.183,1366x768,964x549,,Meta-Task,29,Meta-first,doublestim,1405,2434394,758,,87,,,simpleperceptual,132,responsePerceptual,,3.5,,101.2222222,1,,,18
293,1.60E+12,08/11/2020 13:37,1.60E+12,1,08/11/2020 14:37,12022,43,task-pf6t,,7648610,BLIND,2267201,,live,,,computer,Desktop or Laptop,Windows 7,Chrome 86.0.4240.183,1366x768,964x549,,Meta-Task,29,Meta-first,survey-likert,1407,2436339,1423,"{""Q0"":1}",,,,simpleperceptual,132,confidencerating,0.166666667,3.5,0.972222222,102.1944444,1,,,18
294,1.60E+12,08/11/2020 13:37,1.60E+12,1,08/11/2020 14:37,12022,43,task-pf6t,,7648610,BLIND,2267201,,live,,,computer,Desktop or Laptop,Windows 7,Chrome 86.0.4240.183,1366x768,964x549,,Meta-Task,29,Meta-first,doublestim,1414,2440761,515,,69,,,simpleperceptual,133,responsePerceptual,,3.5,,102.1944444,1,,,18
295,1.60E+12,08/11/2020 13:37,1.60E+12,1,08/11/2020 14:37,12022,43,task-pf6t,,7648610,BLIND,2267201,,live,,,computer,Desktop or Laptop,Windows 7,Chrome 86.0.4240.183,1366x768,964x549,,Meta-Task,29,Meta-first,survey-likert,1416,2442617,1333,"{""Q0"":1}",,,,simpleperceptual,133,confidencerating,0.166666667,3.5,0.972222222,103.1666667,1,,,18
296,1.60E+12,08/11/2020 13:38,1.60E+12,1,08/11/2020 14:38,12022,43,task-pf6t,,7648610,BLIND,2267201,,live,,,computer,Desktop or Laptop,Windows 7,Chrome 86.0.4240.183,1366x768,964x549,,Meta-Task,29,Meta-first,doublestim,1423,2447881,1360,,87,1,,simpleperceptual,134,responsePerceptual,,3.5,,103.1666667,1,,,18
297,1.60E+12,08/11/2020 13:38,1.60E+12,1,08/11/2020 14:38,12022,43,task-pf6t,,7648610,BLIND,2267201,,live,,,computer,Desktop or Laptop,Windows 7,Chrome 86.0.4240.183,1366x768,964x549,,Meta-Task,29,Meta-first,survey-likert,1425,2449415,1007,"{""Q0"":1}",,1,,simpleperceptual,134,confidencerating,0.166666667,3.5,0.305555556,103.4722222,1,,,18
298,1.60E+12,08/11/2020 13:38,1.60E+12,1,08/11/2020 14:38,12022,43,task-pf6t,,7648610,BLIND,2267201,,live,,,computer,Desktop or Laptop,Windows 7,Chrome 86.0.4240.183,1366x768,964x549,,Meta-Task,29,Meta-first,doublestim,1432,2453329,8,,87,1,,simpleperceptual,135,responsePerceptual,,3.5,,103.4722222,1,,,18
299,1.60E+12,08/11/2020 13:38,1.60E+12,1,08/11/2020 14:38,12022,43,task-pf6t,,7648610,BLIND,2267201,,live,,,computer,Desktop or Laptop,Windows 7,Chrome 86.0.4240.183,1366x768,964x549,,Meta-Task,29,Meta-first,survey-likert,1434,2454697,844,"{""Q0"":6}",,1,,simpleperceptual,135,confidencerating,1,3.5,1,104.4722222,1,,,18
300,1.60E+12,08/11/2020 13:38,1.60E+12,1,08/11/2020 14:38,12022,43,task-pf6t,,7648610,BLIND,2267201,,live,,,computer,Desktop or Laptop,Windows 7,Chrome 86.0.4240.183,1366x768,964x549,,Meta-Task,29,Meta-first,doublestim,1441,2458690,88,,69,1,,simpleperceptual,136,responsePerceptual,,3.5,,104.4722222,1,,,18
301,1.60E+12,08/11/2020 13:38,1.60E+12,1,08/11/2020 14:38,12022,43,task-pf6t,,7648610,BLIND,2267201,,live,,,computer,Desktop or Laptop,Windows 7,Chrome 86.0.4240.183,1366x768,964x549,,Meta-Task,29,Meta-first,survey-likert,1443,2460041,827,"{""Q0"":6}",,1,,simpleperceptual,136,confidencerating,1,3.5,1,105.4722222,1,,,18
302,1.60E+12,08/11/2020 13:38,1.60E+12,1,08/11/2020 14:38,12022,43,task-pf6t,,7648610,BLIND,2267201,,live,,,computer,Desktop or Laptop,Windows 7,Chrome 86.0.4240.183,1366x768,964x549,,Meta-Task,29,Meta-first,doublestim,1450,2463993,47,,69,1,,simpleperceptual,137,responsePerceptual,,3.5,,105.4722222,1,,,18
303,1.60E+12,08/11/2020 13:38,1.60E+12,1,08/11/2020 14:38,12022,43,task-pf6t,,7648610,BLIND,2267201,,live,,,computer,Desktop or Laptop,Windows 7,Chrome 86.0.4240.183,1366x768,964x549,,Meta-Task,29,Meta-first,survey-likert,1452,2465471,956,"{""Q0"":6}",,1,,simpleperceptual,137,confidencerating,1,3.5,1,106.4722222,1,,,18
304,1.60E+12,08/11/2020 13:38,1.60E+12,1,08/11/2020 14:38,12022,43,task-pf6t,,7648610,BLIND,2267201,,live,,,computer,Desktop or Laptop,Windows 7,Chrome 86.0.4240.183,1366x768,964x549,,Meta-Task,29,Meta-first,doublestim,1459,2469393,17,,87,1,,simpleperceptual,138,responsePerceptual,,3.5,,106.4722222,1,,,18
305,1.60E+12,08/11/2020 13:38,1.60E+12,1,08/11/2020 14:38,12022,43,task-pf6t,,7648610,BLIND,2267201,,live,,,computer,Desktop or Laptop,Windows 7,Chrome 86.0.4240.183,1366x768,964x549,,Meta-Task,29,Meta-first,survey-likert,1461,2471018,1100,"{""Q0"":6}",,1,,simpleperceptual,138,confidencerating,1,3.5,1,107.4722222,1,,,18
306,1.60E+12,08/11/2020 13:38,1.60E+12,1,08/11/2020 14:38,12022,43,task-pf6t,,7648610,BLIND,2267201,,live,,,computer,Desktop or Laptop,Windows 7,Chrome 86.0.4240.183,1366x768,964x549,,Meta-Task,29,Meta-first,doublestim,1468,2475528,605,,87,1,,simpleperceptual,139,responsePerceptual,,3.5,,107.4722222,1,,,18
307,1.60E+12,08/11/2020 13:38,1.60E+12,1,08/11/2020 14:38,12022,43,task-pf6t,,7648610,BLIND,2267201,,live,,,computer,Desktop or Laptop,Windows 7,Chrome 86.0.4240.183,1366x768,964x549,,Meta-Task,29,Meta-first,survey-likert,1470,2477116,1064,"{""Q0"":6}",,1,,simpleperceptual,139,confidencerating,1,3.5,1,108.4722222,1,,,18
308,1.60E+12,08/11/2020 13:38,1.60E+12,1,08/11/2020 14:38,12022,43,task-pf6t,,7648610,BLIND,2267201,,live,,,computer,Desktop or Laptop,Windows 7,Chrome 86.0.4240.183,1366x768,964x549,,Meta-Task,29,Meta-first,doublestim,1477,2481504,485,,87,1,,simpleperceptual,140,responsePerceptual,,3.5,,108.4722222,1,,,18
309,1.60E+12,08/11/2020 13:38,1.60E+12,1,08/11/2020 14:38,12022,43,task-pf6t,,7648610,BLIND,2267201,,live,,,computer,Desktop or Laptop,Windows 7,Chrome 86.0.4240.183,1366x768,964x549,,Meta-Task,29,Meta-first,survey-likert,1479,2483820,1793,"{""Q0"":6}",,1,,simpleperceptual,140,confidencerating,1,3.5,1,109.4722222,1,,,18
310,1.60E+12,08/11/2020 13:38,1.60E+12,1,08/11/2020 14:38,12022,43,task-pf6t,,7648610,BLIND,2267201,,live,,,computer,Desktop or Laptop,Windows 7,Chrome 86.0.4240.183,1366x768,964x549,,Meta-Task,29,Meta-first,doublestim,1486,2487896,170,,69,,,simpleperceptual,141,responsePerceptual,,3.5,,109.4722222,1,,,18
311,1.60E+12,08/11/2020 13:38,1.60E+12,1,08/11/2020 14:38,12022,43,task-pf6t,,7648610,BLIND,2267201,,live,,,computer,Desktop or Laptop,Windows 7,Chrome 86.0.4240.183,1366x768,964x549,,Meta-Task,29,Meta-first,survey-likert,1488,2489453,1032,"{""Q0"":1}",,,,simpleperceptual,141,confidencerating,0.166666667,3.5,0.972222222,110.4444444,1,,,18
312,1.60E+12,08/11/2020 13:38,1.60E+12,1,08/11/2020 14:38,12022,43,task-pf6t,,7648610,BLIND,2267201,,live,,,computer,Desktop or Laptop,Windows 7,Chrome 86.0.4240.183,1366x768,964x549,,Meta-Task,29,Meta-first,doublestim,1495,2493618,259,,69,1,,simpleperceptual,142,responsePerceptual,,3.5,,110.4444444,1,,,18
313,1.60E+12,08/11/2020 13:38,1.60E+12,1,08/11/2020 14:38,12022,43,task-pf6t,,7648610,BLIND,2267201,,live,,,computer,Desktop or Laptop,Windows 7,Chrome 86.0.4240.183,1366x768,964x549,,Meta-Task,29,Meta-first,survey-likert,1497,2495999,1855,"{""Q0"":1}",,1,,simpleperceptual,142,confidencerating,0.166666667,3.5,0.305555556,110.75,1,,,18
314,1.60E+12,08/11/2020 13:38,1.60E+12,1,08/11/2020 14:38,12022,43,task-pf6t,,7648610,BLIND,2267201,,live,,,computer,Desktop or Laptop,Windows 7,Chrome 86.0.4240.183,1366x768,964x549,,Meta-Task,29,Meta-first,doublestim,1504,2500121,213,,69,1,,simpleperceptual,143,responsePerceptual,,3.5,,110.75,1,,,18
315,1.60E+12,08/11/2020 13:38,1.60E+12,1,08/11/2020 14:38,12022,43,task-pf6t,,7648610,BLIND,2267201,,live,,,computer,Desktop or Laptop,Windows 7,Chrome 86.0.4240.183,1366x768,964x549,,Meta-Task,29,Meta-first,survey-likert,1506,2501697,1054,"{""Q0"":6}",,1,,simpleperceptual,143,confidencerating,1,3.5,1,111.75,1,,,18
316,1.60E+12,08/11/2020 13:38,1.60E+12,1,08/11/2020 14:38,12022,43,task-pf6t,,7648610,BLIND,2267201,,live,,,computer,Desktop or Laptop,Windows 7,Chrome 86.0.4240.183,1366x768,964x549,,Meta-Task,29,Meta-first,doublestim,1513,2506065,465,,69,,,simpleperceptual,144,responsePerceptual,,3.5,,111.75,1,,,18
