Event Index,UTC Timestamp,UTC Date,Local Timestamp,Local Timezone,Local Date,Experiment ID,Experiment Version,Tree Node Key,Repeat Key,Schedule ID,Participant Public ID,Participant Private ID,Participant Starting Group,Participant Status,Participant Completion Code,Participant External Session ID,Participant Device Type,Participant Device,Participant OS,Participant Browser,Participant Monitor Size,Participant Viewport Size,Checkpoint,Task Name,Task Version,randomiser-oh6h,trial_type,trial_index_global,time_elapsed,Reactiontime,responses,key_press,correct,current_trial_difficuly,Task_type,Trial_real_experiment,label,confidence_rating,numDots,quadraticscore,earnings,difficulty_staircase_use,numDots_average,NumDots_use,reversals_staircase
1,1.61E+12,04/12/2020 17:42,1.61E+12,1,04/12/2020 18:42,27169,8,task-yzt9,,8340662,BLIND,2542911,,complete,fgczck,,computer,Desktop or Laptop,Windows 10,Chrome 86.0.4240.198,1920x1080,1903x1080,,Meta-Task,29,Menta-first,doublestim,9,103601,1110,,87,1,,practice,,responsePerceptual_practice,,4.4,,0,1,,5,0
2,1.61E+12,04/12/2020 17:43,1.61E+12,1,04/12/2020 18:42,27169,8,task-yzt9,,8340662,BLIND,2542911,,complete,fgczck,,computer,Desktop or Laptop,Windows 10,Chrome 86.0.4240.198,1920x1080,1903x1080,,Meta-Task,29,Menta-first,doublestim,17,107781,348,,69,1,,practice,,responsePerceptual_practice,,4.4,,0,1,,5,0
3,1.61E+12,04/12/2020 17:43,1.61E+12,1,04/12/2020 18:43,27169,8,task-yzt9,,8340662,BLIND,2542911,,complete,fgczck,,computer,Desktop or Laptop,Windows 10,Chrome 86.0.4240.198,1920x1080,1903x1080,,Meta-Task,29,Menta-first,doublestim,25,112207,578,,69,1,,practice,,responsePerceptual_practice,,4,,0,1,,4,0
4,1.61E+12,04/12/2020 17:43,1.61E+12,1,04/12/2020 18:43,27169,8,task-yzt9,,8340662,BLIND,2542911,,complete,fgczck,,computer,Desktop or Laptop,Windows 10,Chrome 86.0.4240.198,1920x1080,1903x1080,,Meta-Task,29,Menta-first,doublestim,33,116516,481,,69,1,,practice,,responsePerceptual_practice,,4,,0,1,,4,0
5,1.61E+12,04/12/2020 17:43,1.61E+12,1,04/12/2020 18:43,27169,8,task-yzt9,,8340662,BLIND,2542911,,complete,fgczck,,computer,Desktop or Laptop,Windows 10,Chrome 86.0.4240.198,1920x1080,1903x1080,,Meta-Task,29,Menta-first,doublestim,41,120674,340,,87,,,practice,,responsePerceptual_practice,,3.6,,0,1,,3.6,0
6,1.61E+12,04/12/2020 17:43,1.61E+12,1,04/12/2020 18:43,27169,8,task-yzt9,,8340662,BLIND,2542911,,complete,fgczck,,computer,Desktop or Laptop,Windows 10,Chrome 86.0.4240.198,1920x1080,1903x1080,,Meta-Task,29,Menta-first,doublestim,49,125006,516,,69,,,practice,,responsePerceptual_practice,,4,,0,1,,4,1
7,1.61E+12,04/12/2020 17:43,1.61E+12,1,04/12/2020 18:43,27169,8,task-yzt9,,8340662,BLIND,2542911,,complete,fgczck,,computer,Desktop or Laptop,Windows 10,Chrome 86.0.4240.198,1920x1080,1903x1080,,Meta-Task,29,Menta-first,doublestim,57,129321,496,,69,1,,practice,,responsePerceptual_practice,,4.2,,0,1,,4.2,1
8,1.61E+12,04/12/2020 17:43,1.61E+12,1,04/12/2020 18:43,27169,8,task-yzt9,,8340662,BLIND,2542911,,complete,fgczck,,computer,Desktop or Laptop,Windows 10,Chrome 86.0.4240.198,1920x1080,1903x1080,,Meta-Task,29,Menta-first,doublestim,65,133503,361,,87,1,,practice,,responsePerceptual_practice,,4.2,,0,1,,4.2,1
9,1.61E+12,04/12/2020 17:43,1.61E+12,1,04/12/2020 18:43,27169,8,task-yzt9,,8340662,BLIND,2542911,,complete,fgczck,,computer,Desktop or Laptop,Windows 10,Chrome 86.0.4240.198,1920x1080,1903x1080,,Meta-Task,29,Menta-first,doublestim,73,137824,494,,87,1,,practice,,responsePerceptual_practice,,4,,0,1,,4,2
10,1.61E+12,04/12/2020 17:43,1.61E+12,1,04/12/2020 18:43,27169,8,task-yzt9,,8340662,BLIND,2542911,,complete,fgczck,,computer,Desktop or Laptop,Windows 10,Chrome 86.0.4240.198,1920x1080,1903x1080,,Meta-Task,29,Menta-first,doublestim,81,142222,552,,69,1,,practice,,responsePerceptual_practice,,4,,0,1,,4,2
11,1.61E+12,04/12/2020 17:43,1.61E+12,1,04/12/2020 18:43,27169,8,task-yzt9,,8340662,BLIND,2542911,,complete,fgczck,,computer,Desktop or Laptop,Windows 10,Chrome 86.0.4240.198,1920x1080,1903x1080,,Meta-Task,29,Menta-first,doublestim,89,147224,1181,,87,1,,practice,,responsePerceptual_practice,,3.8,,0,1,,3.8,2
12,1.61E+12,04/12/2020 17:43,1.61E+12,1,04/12/2020 18:43,27169,8,task-yzt9,,8340662,BLIND,2542911,,complete,fgczck,,computer,Desktop or Laptop,Windows 10,Chrome 86.0.4240.198,1920x1080,1903x1080,,Meta-Task,29,Menta-first,doublestim,97,151438,395,,69,1,,practice,,responsePerceptual_practice,,3.8,,0,1,,3.8,2
13,1.61E+12,04/12/2020 17:43,1.61E+12,1,04/12/2020 18:43,27169,8,task-yzt9,,8340662,BLIND,2542911,,complete,fgczck,,computer,Desktop or Laptop,Windows 10,Chrome 86.0.4240.198,1920x1080,1903x1080,,Meta-Task,29,Menta-first,doublestim,105,155802,541,,87,,,practice,,responsePerceptual_practice,,3.7,,0,1,,3.7,2
14,1.61E+12,04/12/2020 17:43,1.61E+12,1,04/12/2020 18:43,27169,8,task-yzt9,,8340662,BLIND,2542911,,complete,fgczck,,computer,Desktop or Laptop,Windows 10,Chrome 86.0.4240.198,1920x1080,1903x1080,,Meta-Task,29,Menta-first,doublestim,113,159932,310,,87,1,,practice,,responsePerceptual_practice,,3.8,,0,1,,3.8,3
15,1.61E+12,04/12/2020 17:43,1.61E+12,1,04/12/2020 18:43,27169,8,task-yzt9,,8340662,BLIND,2542911,,complete,fgczck,,computer,Desktop or Laptop,Windows 10,Chrome 86.0.4240.198,1920x1080,1903x1080,,Meta-Task,29,Menta-first,doublestim,121,164045,299,,87,1,,practice,,responsePerceptual_practice,,3.8,,0,1,,3.8,3
16,1.61E+12,04/12/2020 17:44,1.61E+12,1,04/12/2020 18:43,27169,8,task-yzt9,,8340662,BLIND,2542911,,complete,fgczck,,computer,Desktop or Laptop,Windows 10,Chrome 86.0.4240.198,1920x1080,1903x1080,,Meta-Task,29,Menta-first,doublestim,129,168185,322,,69,1,,practice,,responsePerceptual_practice,,3.7,,0,1,,3.7,4
17,1.61E+12,04/12/2020 17:44,1.61E+12,1,04/12/2020 18:44,27169,8,task-yzt9,,8340662,BLIND,2542911,,complete,fgczck,,computer,Desktop or Laptop,Windows 10,Chrome 86.0.4240.198,1920x1080,1903x1080,,Meta-Task,29,Menta-first,doublestim,137,172399,390,,69,1,,practice,,responsePerceptual_practice,,3.7,,0,1,,3.7,4
18,1.61E+12,04/12/2020 17:44,1.61E+12,1,04/12/2020 18:44,27169,8,task-yzt9,,8340662,BLIND,2542911,,complete,fgczck,,computer,Desktop or Laptop,Windows 10,Chrome 86.0.4240.198,1920x1080,1903x1080,,Meta-Task,29,Menta-first,doublestim,145,176556,326,,69,1,,practice,,responsePerceptual_practice,,3.6,,0,1,,3.6,4
19,1.61E+12,04/12/2020 17:44,1.61E+12,1,04/12/2020 18:44,27169,8,task-yzt9,,8340662,BLIND,2542911,,complete,fgczck,,computer,Desktop or Laptop,Windows 10,Chrome 86.0.4240.198,1920x1080,1903x1080,,Meta-Task,29,Menta-first,doublestim,153,184347,3970,,87,1,,practice,,responsePerceptual_practice,,3.6,,0,1,,3.6,4
20,1.61E+12,04/12/2020 17:44,1.61E+12,1,04/12/2020 18:44,27169,8,task-yzt9,,8340662,BLIND,2542911,,complete,fgczck,,computer,Desktop or Laptop,Windows 10,Chrome 86.0.4240.198,1920x1080,1903x1080,,Meta-Task,29,Menta-first,doublestim,161,188832,668,,87,,,practice,,responsePerceptual_practice,,3.5,,0,1,,3.5,4
21,1.61E+12,04/12/2020 17:44,1.61E+12,1,04/12/2020 18:44,27169,8,task-yzt9,,8340662,BLIND,2542911,,complete,fgczck,,computer,Desktop or Laptop,Windows 10,Chrome 86.0.4240.198,1920x1080,1903x1080,,Meta-Task,29,Menta-first,doublestim,169,192962,301,,87,1,,practice,,responsePerceptual_practice,,3.6,,0,1,,3.6,5
22,1.61E+12,04/12/2020 17:44,1.61E+12,1,04/12/2020 18:44,27169,8,task-yzt9,,8340662,BLIND,2542911,,complete,fgczck,,computer,Desktop or Laptop,Windows 10,Chrome 86.0.4240.198,1920x1080,1903x1080,,Meta-Task,29,Menta-first,doublestim,177,197095,314,,87,1,,practice,,responsePerceptual_practice,,3.6,,0,1,,3.6,5
23,1.61E+12,04/12/2020 17:44,1.61E+12,1,04/12/2020 18:44,27169,8,task-yzt9,,8340662,BLIND,2542911,,complete,fgczck,,computer,Desktop or Laptop,Windows 10,Chrome 86.0.4240.198,1920x1080,1903x1080,,Meta-Task,29,Menta-first,doublestim,185,201738,828,,69,1,,practice,,responsePerceptual_practice,,3.5,,0,1,,3.5,6
24,1.61E+12,04/12/2020 17:44,1.61E+12,1,04/12/2020 18:44,27169,8,task-yzt9,,8340662,BLIND,2542911,,complete,fgczck,,computer,Desktop or Laptop,Windows 10,Chrome 86.0.4240.198,1920x1080,1903x1080,,Meta-Task,29,Menta-first,doublestim,193,206721,1155,,87,1,,practice,,responsePerceptual_practice,,3.5,,0,1,,3.5,6
25,1.61E+12,04/12/2020 17:44,1.61E+12,1,04/12/2020 18:44,27169,8,task-yzt9,,8340662,BLIND,2542911,,complete,fgczck,,computer,Desktop or Laptop,Windows 10,Chrome 86.0.4240.198,1920x1080,1903x1080,,Meta-Task,29,Menta-first,doublestim,201,210808,268,,87,1,,practice,,responsePerceptual_practice,,3.4,,0,1,,3.4,6
26,1.61E+12,04/12/2020 17:44,1.61E+12,1,04/12/2020 18:44,27169,8,task-yzt9,,8340662,BLIND,2542911,,complete,fgczck,,computer,Desktop or Laptop,Windows 10,Chrome 86.0.4240.198,1920x1080,1903x1080,,Meta-Task,29,Menta-first,doublestim,209,215000,371,,87,1,,practice,,responsePerceptual_practice,,3.4,,0,1,,3.4,6
27,1.61E+12,04/12/2020 17:45,1.61E+12,1,04/12/2020 18:45,27169,8,task-yzt9,,8340662,BLIND,2542911,,complete,fgczck,,computer,Desktop or Laptop,Windows 10,Chrome 86.0.4240.198,1920x1080,1903x1080,,Meta-Task,29,Menta-first,,,,,,,,,,,,,,,,,,,
28,1.61E+12,04/12/2020 17:45,1.61E+12,1,04/12/2020 18:45,27169,8,task-yzt9,,8340662,BLIND,2542911,,complete,fgczck,,computer,Desktop or Laptop,Windows 10,Chrome 86.0.4240.198,1920x1080,1903x1080,,Meta-Task,29,Menta-first,survey-likert,213,244208,6950,"{""Q0"":6,""Q1"":2}",,,,practice,,confidprac,,3.4,,0,1,,,6
29,1.61E+12,04/12/2020 17:45,1.61E+12,1,04/12/2020 18:45,27169,8,task-yzt9,,8340662,BLIND,2542911,,complete,fgczck,,computer,Desktop or Laptop,Windows 10,Chrome 86.0.4240.198,1920x1080,1903x1080,,Meta-Task,29,Menta-first,survey-likert,215,253563,3663,"{""Q0"":6,""Q1"":1}",,,,practice,,confidprac,,3.4,,0,1,,,6
30,1.61E+12,04/12/2020 17:45,1.61E+12,1,04/12/2020 18:45,27169,8,task-yzt9,,8340662,BLIND,2542911,,complete,fgczck,,computer,Desktop or Laptop,Windows 10,Chrome 86.0.4240.198,1920x1080,1903x1080,,Meta-Task,29,Menta-first,doublestim,223,263088,297,,87,1,,simpleperceptual,1,responsePerceptual,,3.3,,0,1,,,6
31,1.61E+12,04/12/2020 17:45,1.61E+12,1,04/12/2020 18:45,27169,8,task-yzt9,,8340662,BLIND,2542911,,complete,fgczck,,computer,Desktop or Laptop,Windows 10,Chrome 86.0.4240.198,1920x1080,1903x1080,,Meta-Task,29,Menta-first,survey-likert,225,266945,3345,"{""Q0"":4}",,1,,simpleperceptual,1,confidencerating,0.666666667,3.3,0.888888889,0.888888889,1,,,6
32,1.61E+12,04/12/2020 17:45,1.61E+12,1,04/12/2020 18:45,27169,8,task-yzt9,,8340662,BLIND,2542911,,complete,fgczck,,computer,Desktop or Laptop,Windows 10,Chrome 86.0.4240.198,1920x1080,1903x1080,,Meta-Task,29,Menta-first,doublestim,232,271106,347,,69,1,,simpleperceptual,2,responsePerceptual,,3.3,,0.888888889,1,,,6
33,1.61E+12,04/12/2020 17:45,1.61E+12,1,04/12/2020 18:45,27169,8,task-yzt9,,8340662,BLIND,2542911,,complete,fgczck,,computer,Desktop or Laptop,Windows 10,Chrome 86.0.4240.198,1920x1080,1903x1080,,Meta-Task,29,Menta-first,survey-likert,234,273311,1693,"{""Q0"":5}",,1,,simpleperceptual,2,confidencerating,0.833333333,3.3,0.972222222,1.861111111,1,,,6
34,1.61E+12,04/12/2020 17:45,1.61E+12,1,04/12/2020 18:45,27169,8,task-yzt9,,8340662,BLIND,2542911,,complete,fgczck,,computer,Desktop or Laptop,Windows 10,Chrome 86.0.4240.198,1920x1080,1903x1080,,Meta-Task,29,Menta-first,doublestim,241,277473,338,,87,1,,simpleperceptual,3,responsePerceptual,,3.2,,1.861111111,1,,,6
35,1.61E+12,04/12/2020 17:45,1.61E+12,1,04/12/2020 18:45,27169,8,task-yzt9,,8340662,BLIND,2542911,,complete,fgczck,,computer,Desktop or Laptop,Windows 10,Chrome 86.0.4240.198,1920x1080,1903x1080,,Meta-Task,29,Menta-first,survey-likert,243,280174,2191,"{""Q0"":2}",,1,,simpleperceptual,3,confidencerating,0.333333333,3.2,0.555555556,2.416666667,1,,,6
36,1.61E+12,04/12/2020 17:45,1.61E+12,1,04/12/2020 18:45,27169,8,task-yzt9,,8340662,BLIND,2542911,,complete,fgczck,,computer,Desktop or Laptop,Windows 10,Chrome 86.0.4240.198,1920x1080,1903x1080,,Meta-Task,29,Menta-first,doublestim,250,284348,366,,69,1,,simpleperceptual,4,responsePerceptual,,3.2,,2.416666667,1,,,6
37,1.61E+12,04/12/2020 17:45,1.61E+12,1,04/12/2020 18:45,27169,8,task-yzt9,,8340662,BLIND,2542911,,complete,fgczck,,computer,Desktop or Laptop,Windows 10,Chrome 86.0.4240.198,1920x1080,1903x1080,,Meta-Task,29,Menta-first,survey-likert,252,286317,1453,"{""Q0"":4}",,1,,simpleperceptual,4,confidencerating,0.666666667,3.2,0.888888889,3.305555556,1,,,6
38,1.61E+12,04/12/2020 17:46,1.61E+12,1,04/12/2020 18:46,27169,8,task-yzt9,,8340662,BLIND,2542911,,complete,fgczck,,computer,Desktop or Laptop,Windows 10,Chrome 86.0.4240.198,1920x1080,1903x1080,,Meta-Task,29,Menta-first,doublestim,259,290461,335,,69,1,,simpleperceptual,5,responsePerceptual,,3.1,,3.305555556,1,,,6
39,1.61E+12,04/12/2020 17:46,1.61E+12,1,04/12/2020 18:46,27169,8,task-yzt9,,8340662,BLIND,2542911,,complete,fgczck,,computer,Desktop or Laptop,Windows 10,Chrome 86.0.4240.198,1920x1080,1903x1080,,Meta-Task,29,Menta-first,survey-likert,261,291958,986,"{""Q0"":3}",,1,,simpleperceptual,5,confidencerating,0.5,3.1,0.75,4.055555556,1,,,6
40,1.61E+12,04/12/2020 17:46,1.61E+12,1,04/12/2020 18:46,27169,8,task-yzt9,,8340662,BLIND,2542911,,complete,fgczck,,computer,Desktop or Laptop,Windows 10,Chrome 86.0.4240.198,1920x1080,1903x1080,,Meta-Task,29,Menta-first,doublestim,268,296392,620,,87,1,,simpleperceptual,6,responsePerceptual,,3.1,,4.055555556,1,,,6
41,1.61E+12,04/12/2020 17:46,1.61E+12,1,04/12/2020 18:46,27169,8,task-yzt9,,8340662,BLIND,2542911,,complete,fgczck,,computer,Desktop or Laptop,Windows 10,Chrome 86.0.4240.198,1920x1080,1903x1080,,Meta-Task,29,Menta-first,survey-likert,270,298254,1352,"{""Q0"":2}",,1,,simpleperceptual,6,confidencerating,0.333333333,3.1,0.555555556,4.611111111,1,,,6
42,1.61E+12,04/12/2020 17:46,1.61E+12,1,04/12/2020 18:46,27169,8,task-yzt9,,8340662,BLIND,2542911,,complete,fgczck,,computer,Desktop or Laptop,Windows 10,Chrome 86.0.4240.198,1920x1080,1903x1080,,Meta-Task,29,Menta-first,doublestim,277,302329,259,,87,1,,simpleperceptual,7,responsePerceptual,,3,,4.611111111,1,,,6
43,1.61E+12,04/12/2020 17:46,1.61E+12,1,04/12/2020 18:46,27169,8,task-yzt9,,8340662,BLIND,2542911,,complete,fgczck,,computer,Desktop or Laptop,Windows 10,Chrome 86.0.4240.198,1920x1080,1903x1080,,Meta-Task,29,Menta-first,survey-likert,279,304806,1967,"{""Q0"":4}",,1,,simpleperceptual,7,confidencerating,0.666666667,3,0.888888889,5.5,1,,,6
44,1.61E+12,04/12/2020 17:46,1.61E+12,1,04/12/2020 18:46,27169,8,task-yzt9,,8340662,BLIND,2542911,,complete,fgczck,,computer,Desktop or Laptop,Windows 10,Chrome 86.0.4240.198,1920x1080,1903x1080,,Meta-Task,29,Menta-first,doublestim,286,309294,657,,87,1,,simpleperceptual,8,responsePerceptual,,3,,5.5,1,,,6
45,1.61E+12,04/12/2020 17:46,1.61E+12,1,04/12/2020 18:46,27169,8,task-yzt9,,8340662,BLIND,2542911,,complete,fgczck,,computer,Desktop or Laptop,Windows 10,Chrome 86.0.4240.198,1920x1080,1903x1080,,Meta-Task,29,Menta-first,survey-likert,288,312056,2250,"{""Q0"":4}",,1,,simpleperceptual,8,confidencerating,0.666666667,3,0.888888889,6.388888889,1,,,6
46,1.61E+12,04/12/2020 17:46,1.61E+12,1,04/12/2020 18:46,27169,8,task-yzt9,,8340662,BLIND,2542911,,complete,fgczck,,computer,Desktop or Laptop,Windows 10,Chrome 86.0.4240.198,1920x1080,1903x1080,,Meta-Task,29,Menta-first,doublestim,295,316345,470,,87,1,,simpleperceptual,9,responsePerceptual,,2.9,,6.388888889,1,,,6
47,1.61E+12,04/12/2020 17:46,1.61E+12,1,04/12/2020 18:46,27169,8,task-yzt9,,8340662,BLIND,2542911,,complete,fgczck,,computer,Desktop or Laptop,Windows 10,Chrome 86.0.4240.198,1920x1080,1903x1080,,Meta-Task,29,Menta-first,survey-likert,297,319855,2999,"{""Q0"":3}",,1,,simpleperceptual,9,confidencerating,0.5,2.9,0.75,7.138888889,1,,,6
48,1.61E+12,04/12/2020 17:46,1.61E+12,1,04/12/2020 18:46,27169,8,task-yzt9,,8340662,BLIND,2542911,,complete,fgczck,,computer,Desktop or Laptop,Windows 10,Chrome 86.0.4240.198,1920x1080,1903x1080,,Meta-Task,29,Menta-first,doublestim,304,325281,1613,,69,,,simpleperceptual,10,responsePerceptual,,2.9,,7.138888889,1,,,6
49,1.61E+12,04/12/2020 17:46,1.61E+12,1,04/12/2020 18:46,27169,8,task-yzt9,,8340662,BLIND,2542911,,complete,fgczck,,computer,Desktop or Laptop,Windows 10,Chrome 86.0.4240.198,1920x1080,1903x1080,,Meta-Task,29,Menta-first,survey-likert,306,327187,1397,"{""Q0"":1}",,,,simpleperceptual,10,confidencerating,0.166666667,2.9,0.972222222,8.111111111,1,,,6
50,1.61E+12,04/12/2020 17:46,1.61E+12,1,04/12/2020 18:46,27169,8,task-yzt9,,8340662,BLIND,2542911,,complete,fgczck,,computer,Desktop or Laptop,Windows 10,Chrome 86.0.4240.198,1920x1080,1903x1080,,Meta-Task,29,Menta-first,doublestim,313,331727,727,,69,1,,simpleperceptual,11,responsePerceptual,,3,,8.111111111,1,,,7
51,1.61E+12,04/12/2020 17:46,1.61E+12,1,04/12/2020 18:46,27169,8,task-yzt9,,8340662,BLIND,2542911,,complete,fgczck,,computer,Desktop or Laptop,Windows 10,Chrome 86.0.4240.198,1920x1080,1903x1080,,Meta-Task,29,Menta-first,survey-likert,315,334143,1886,"{""Q0"":2}",,1,,simpleperceptual,11,confidencerating,0.333333333,3,0.555555556,8.666666667,1,,,7
52,1.61E+12,04/12/2020 17:46,1.61E+12,1,04/12/2020 18:46,27169,8,task-yzt9,,8340662,BLIND,2542911,,complete,fgczck,,computer,Desktop or Laptop,Windows 10,Chrome 86.0.4240.198,1920x1080,1903x1080,,Meta-Task,29,Menta-first,doublestim,322,338471,517,,87,,,simpleperceptual,12,responsePerceptual,,3,,8.666666667,1,,,7
53,1.61E+12,04/12/2020 17:46,1.61E+12,1,04/12/2020 18:46,27169,8,task-yzt9,,8340662,BLIND,2542911,,complete,fgczck,,computer,Desktop or Laptop,Windows 10,Chrome 86.0.4240.198,1920x1080,1903x1080,,Meta-Task,29,Menta-first,survey-likert,324,340845,1864,"{""Q0"":2}",,,,simpleperceptual,12,confidencerating,0.333333333,3,0.888888889,9.555555556,1,,,7
54,1.61E+12,04/12/2020 17:46,1.61E+12,1,04/12/2020 18:46,27169,8,task-yzt9,,8340662,BLIND,2542911,,complete,fgczck,,computer,Desktop or Laptop,Windows 10,Chrome 86.0.4240.198,1920x1080,1903x1080,,Meta-Task,29,Menta-first,doublestim,331,344962,304,,69,1,,simpleperceptual,13,responsePerceptual,,3.1,,9.555555556,1,,,7
55,1.61E+12,04/12/2020 17:46,1.61E+12,1,04/12/2020 18:46,27169,8,task-yzt9,,8340662,BLIND,2542911,,complete,fgczck,,computer,Desktop or Laptop,Windows 10,Chrome 86.0.4240.198,1920x1080,1903x1080,,Meta-Task,29,Menta-first,survey-likert,333,346741,1268,"{""Q0"":4}",,1,,simpleperceptual,13,confidencerating,0.666666667,3.1,0.888888889,10.44444444,1,,,7
56,1.61E+12,04/12/2020 17:47,1.61E+12,1,04/12/2020 18:47,27169,8,task-yzt9,,8340662,BLIND,2542911,,complete,fgczck,,computer,Desktop or Laptop,Windows 10,Chrome 86.0.4240.198,1920x1080,1903x1080,,Meta-Task,29,Menta-first,doublestim,340,350976,420,,69,1,,simpleperceptual,14,responsePerceptual,,3.1,,10.44444444,1,,,7
57,1.61E+12,04/12/2020 17:47,1.61E+12,1,04/12/2020 18:47,27169,8,task-yzt9,,8340662,BLIND,2542911,,complete,fgczck,,computer,Desktop or Laptop,Windows 10,Chrome 86.0.4240.198,1920x1080,1903x1080,,Meta-Task,29,Menta-first,survey-likert,342,353004,1518,"{""Q0"":4}",,1,,simpleperceptual,14,confidencerating,0.666666667,3.1,0.888888889,11.33333333,1,,,7
58,1.61E+12,04/12/2020 17:47,1.61E+12,1,04/12/2020 18:47,27169,8,task-yzt9,,8340662,BLIND,2542911,,complete,fgczck,,computer,Desktop or Laptop,Windows 10,Chrome 86.0.4240.198,1920x1080,1903x1080,,Meta-Task,29,Menta-first,doublestim,349,357276,465,,69,1,,simpleperceptual,15,responsePerceptual,,3,,11.33333333,1,,,8
59,1.61E+12,04/12/2020 17:47,1.61E+12,1,04/12/2020 18:47,27169,8,task-yzt9,,8340662,BLIND,2542911,,complete,fgczck,,computer,Desktop or Laptop,Windows 10,Chrome 86.0.4240.198,1920x1080,1903x1080,,Meta-Task,29,Menta-first,survey-likert,351,358633,846,"{""Q0"":3}",,1,,simpleperceptual,15,confidencerating,0.5,3,0.75,12.08333333,1,,,8
60,1.61E+12,04/12/2020 17:47,1.61E+12,1,04/12/2020 18:47,27169,8,task-yzt9,,8340662,BLIND,2542911,,complete,fgczck,,computer,Desktop or Laptop,Windows 10,Chrome 86.0.4240.198,1920x1080,1903x1080,,Meta-Task,29,Menta-first,doublestim,358,362765,310,,87,1,,simpleperceptual,16,responsePerceptual,,3,,12.08333333,1,,,8
61,1.61E+12,04/12/2020 17:47,1.61E+12,1,04/12/2020 18:47,27169,8,task-yzt9,,8340662,BLIND,2542911,,complete,fgczck,,computer,Desktop or Laptop,Windows 10,Chrome 86.0.4240.198,1920x1080,1903x1080,,Meta-Task,29,Menta-first,survey-likert,360,363821,546,"{""Q0"":3}",,1,,simpleperceptual,16,confidencerating,0.5,3,0.75,12.83333333,1,,,8
62,1.61E+12,04/12/2020 17:47,1.61E+12,1,04/12/2020 18:47,27169,8,task-yzt9,,8340662,BLIND,2542911,,complete,fgczck,,computer,Desktop or Laptop,Windows 10,Chrome 86.0.4240.198,1920x1080,1903x1080,,Meta-Task,29,Menta-first,doublestim,367,367871,233,,69,1,,simpleperceptual,17,responsePerceptual,,2.9,,12.83333333,1,,,8
63,1.61E+12,04/12/2020 17:47,1.61E+12,1,04/12/2020 18:47,27169,8,task-yzt9,,8340662,BLIND,2542911,,complete,fgczck,,computer,Desktop or Laptop,Windows 10,Chrome 86.0.4240.198,1920x1080,1903x1080,,Meta-Task,29,Menta-first,survey-likert,369,370015,1634,"{""Q0"":4}",,1,,simpleperceptual,17,confidencerating,0.666666667,2.9,0.888888889,13.72222222,1,,,8
64,1.61E+12,04/12/2020 17:47,1.61E+12,1,04/12/2020 18:47,27169,8,task-yzt9,,8340662,BLIND,2542911,,complete,fgczck,,computer,Desktop or Laptop,Windows 10,Chrome 86.0.4240.198,1920x1080,1903x1080,,Meta-Task,29,Menta-first,doublestim,376,374146,284,,87,1,,simpleperceptual,18,responsePerceptual,,2.9,,13.72222222,1,,,8
65,1.61E+12,04/12/2020 17:47,1.61E+12,1,04/12/2020 18:47,27169,8,task-yzt9,,8340662,BLIND,2542911,,complete,fgczck,,computer,Desktop or Laptop,Windows 10,Chrome 86.0.4240.198,1920x1080,1903x1080,,Meta-Task,29,Menta-first,survey-likert,378,378257,3594,"{""Q0"":4}",,1,,simpleperceptual,18,confidencerating,0.666666667,2.9,0.888888889,14.61111111,1,,,8
66,1.61E+12,04/12/2020 17:47,1.61E+12,1,04/12/2020 18:47,27169,8,task-yzt9,,8340662,BLIND,2542911,,complete,fgczck,,computer,Desktop or Laptop,Windows 10,Chrome 86.0.4240.198,1920x1080,1903x1080,,Meta-Task,29,Menta-first,doublestim,385,382418,350,,69,1,,simpleperceptual,19,responsePerceptual,,2.8,,14.61111111,1,,,8
67,1.61E+12,04/12/2020 17:47,1.61E+12,1,04/12/2020 18:47,27169,8,task-yzt9,,8340662,BLIND,2542911,,complete,fgczck,,computer,Desktop or Laptop,Windows 10,Chrome 86.0.4240.198,1920x1080,1903x1080,,Meta-Task,29,Menta-first,survey-likert,387,385323,2393,"{""Q0"":2}",,1,,simpleperceptual,19,confidencerating,0.333333333,2.8,0.555555556,15.16666667,1,,,8
68,1.61E+12,04/12/2020 17:47,1.61E+12,1,04/12/2020 18:47,27169,8,task-yzt9,,8340662,BLIND,2542911,,complete,fgczck,,computer,Desktop or Laptop,Windows 10,Chrome 86.0.4240.198,1920x1080,1903x1080,,Meta-Task,29,Menta-first,doublestim,394,389826,688,,69,,,simpleperceptual,20,responsePerceptual,,2.8,,15.16666667,1,,,8
69,1.61E+12,04/12/2020 17:47,1.61E+12,1,04/12/2020 18:47,27169,8,task-yzt9,,8340662,BLIND,2542911,,complete,fgczck,,computer,Desktop or Laptop,Windows 10,Chrome 86.0.4240.198,1920x1080,1903x1080,,Meta-Task,29,Menta-first,survey-likert,396,392072,1731,"{""Q0"":3}",,,,simpleperceptual,20,confidencerating,0.5,2.8,0.75,15.91666667,1,,,8
70,1.61E+12,04/12/2020 17:47,1.61E+12,1,04/12/2020 18:47,27169,8,task-yzt9,,8340662,BLIND,2542911,,complete,fgczck,,computer,Desktop or Laptop,Windows 10,Chrome 86.0.4240.198,1920x1080,1903x1080,,Meta-Task,29,Menta-first,doublestim,403,396381,498,,87,1,,simpleperceptual,21,responsePerceptual,,2.9,,15.91666667,1,,,9
71,1.61E+12,04/12/2020 17:47,1.61E+12,1,04/12/2020 18:47,27169,8,task-yzt9,,8340662,BLIND,2542911,,complete,fgczck,,computer,Desktop or Laptop,Windows 10,Chrome 86.0.4240.198,1920x1080,1903x1080,,Meta-Task,29,Menta-first,survey-likert,405,399525,2633,"{""Q0"":2}",,1,,simpleperceptual,21,confidencerating,0.333333333,2.9,0.555555556,16.47222222,1,,,9
72,1.61E+12,04/12/2020 17:47,1.61E+12,1,04/12/2020 18:47,27169,8,task-yzt9,,8340662,BLIND,2542911,,complete,fgczck,,computer,Desktop or Laptop,Windows 10,Chrome 86.0.4240.198,1920x1080,1903x1080,,Meta-Task,29,Menta-first,doublestim,412,403629,300,,69,1,,simpleperceptual,22,responsePerceptual,,2.9,,16.47222222,1,,,9
73,1.61E+12,04/12/2020 17:47,1.61E+12,1,04/12/2020 18:47,27169,8,task-yzt9,,8340662,BLIND,2542911,,complete,fgczck,,computer,Desktop or Laptop,Windows 10,Chrome 86.0.4240.198,1920x1080,1903x1080,,Meta-Task,29,Menta-first,survey-likert,414,406334,2180,"{""Q0"":4}",,1,,simpleperceptual,22,confidencerating,0.666666667,2.9,0.888888889,17.36111111,1,,,9
74,1.61E+12,04/12/2020 17:48,1.61E+12,1,04/12/2020 18:48,27169,8,task-yzt9,,8340662,BLIND,2542911,,complete,fgczck,,computer,Desktop or Laptop,Windows 10,Chrome 86.0.4240.198,1920x1080,1903x1080,,Meta-Task,29,Menta-first,doublestim,421,412656,2499,,87,1,,simpleperceptual,23,responsePerceptual,,2.8,,17.36111111,1,,,10
75,1.61E+12,04/12/2020 17:48,1.61E+12,1,04/12/2020 18:48,27169,8,task-yzt9,,8340662,BLIND,2542911,,complete,fgczck,,computer,Desktop or Laptop,Windows 10,Chrome 86.0.4240.198,1920x1080,1903x1080,,Meta-Task,29,Menta-first,survey-likert,423,415238,2072,"{""Q0"":1}",,1,,simpleperceptual,23,confidencerating,0.166666667,2.8,0.305555556,17.66666667,1,,,10
76,1.61E+12,04/12/2020 17:48,1.61E+12,1,04/12/2020 18:48,27169,8,task-yzt9,,8340662,BLIND,2542911,,complete,fgczck,,computer,Desktop or Laptop,Windows 10,Chrome 86.0.4240.198,1920x1080,1903x1080,,Meta-Task,29,Menta-first,doublestim,430,420104,1035,,87,1,,simpleperceptual,24,responsePerceptual,,2.8,,17.66666667,1,,,10
77,1.61E+12,04/12/2020 17:48,1.61E+12,1,04/12/2020 18:48,27169,8,task-yzt9,,8340662,BLIND,2542911,,complete,fgczck,,computer,Desktop or Laptop,Windows 10,Chrome 86.0.4240.198,1920x1080,1903x1080,,Meta-Task,29,Menta-first,survey-likert,432,422638,2023,"{""Q0"":1}",,1,,simpleperceptual,24,confidencerating,0.166666667,2.8,0.305555556,17.97222222,1,,,10
78,1.61E+12,04/12/2020 17:48,1.61E+12,1,04/12/2020 18:48,27169,8,task-yzt9,,8340662,BLIND,2542911,,complete,fgczck,,computer,Desktop or Laptop,Windows 10,Chrome 86.0.4240.198,1920x1080,1903x1080,,Meta-Task,29,Menta-first,doublestim,439,426779,324,,69,,,simpleperceptual,25,responsePerceptual,,2.7,,17.97222222,1,,,10
79,1.61E+12,04/12/2020 17:48,1.61E+12,1,04/12/2020 18:48,27169,8,task-yzt9,,8340662,BLIND,2542911,,complete,fgczck,,computer,Desktop or Laptop,Windows 10,Chrome 86.0.4240.198,1920x1080,1903x1080,,Meta-Task,29,Menta-first,survey-likert,441,431248,3958,"{""Q0"":2}",,,,simpleperceptual,25,confidencerating,0.333333333,2.7,0.888888889,18.86111111,1,,,10
80,1.61E+12,04/12/2020 17:48,1.61E+12,1,04/12/2020 18:48,27169,8,task-yzt9,,8340662,BLIND,2542911,,complete,fgczck,,computer,Desktop or Laptop,Windows 10,Chrome 86.0.4240.198,1920x1080,1903x1080,,Meta-Task,29,Menta-first,doublestim,448,435328,254,,87,,,simpleperceptual,26,responsePerceptual,,2.8,,18.86111111,1,,,11
81,1.61E+12,04/12/2020 17:48,1.61E+12,1,04/12/2020 18:48,27169,8,task-yzt9,,8340662,BLIND,2542911,,complete,fgczck,,computer,Desktop or Laptop,Windows 10,Chrome 86.0.4240.198,1920x1080,1903x1080,,Meta-Task,29,Menta-first,survey-likert,450,436537,700,"{""Q0"":3}",,,,simpleperceptual,26,confidencerating,0.5,2.8,0.75,19.61111111,1,,,11
82,1.61E+12,04/12/2020 17:48,1.61E+12,1,04/12/2020 18:48,27169,8,task-yzt9,,8340662,BLIND,2542911,,complete,fgczck,,computer,Desktop or Laptop,Windows 10,Chrome 86.0.4240.198,1920x1080,1903x1080,,Meta-Task,29,Menta-first,doublestim,457,440615,262,,69,1,,simpleperceptual,27,responsePerceptual,,2.9,,19.61111111,1,,,11
83,1.61E+12,04/12/2020 17:48,1.61E+12,1,04/12/2020 18:48,27169,8,task-yzt9,,8340662,BLIND,2542911,,complete,fgczck,,computer,Desktop or Laptop,Windows 10,Chrome 86.0.4240.198,1920x1080,1903x1080,,Meta-Task,29,Menta-first,survey-likert,459,441704,578,"{""Q0"":3}",,1,,simpleperceptual,27,confidencerating,0.5,2.9,0.75,20.36111111,1,,,11
84,1.61E+12,04/12/2020 17:48,1.61E+12,1,04/12/2020 18:48,27169,8,task-yzt9,,8340662,BLIND,2542911,,complete,fgczck,,computer,Desktop or Laptop,Windows 10,Chrome 86.0.4240.198,1920x1080,1903x1080,,Meta-Task,29,Menta-first,doublestim,466,446647,1129,,69,,,simpleperceptual,28,responsePerceptual,,2.9,,20.36111111,1,,,11
85,1.61E+12,04/12/2020 17:48,1.61E+12,1,04/12/2020 18:48,27169,8,task-yzt9,,8340662,BLIND,2542911,,complete,fgczck,,computer,Desktop or Laptop,Windows 10,Chrome 86.0.4240.198,1920x1080,1903x1080,,Meta-Task,29,Menta-first,survey-likert,468,449242,2086,"{""Q0"":4}",,,,simpleperceptual,28,confidencerating,0.666666667,2.9,0.555555556,20.91666667,1,,,11
86,1.61E+12,04/12/2020 17:48,1.61E+12,1,04/12/2020 18:48,27169,8,task-yzt9,,8340662,BLIND,2542911,,complete,fgczck,,computer,Desktop or Laptop,Windows 10,Chrome 86.0.4240.198,1920x1080,1903x1080,,Meta-Task,29,Menta-first,doublestim,475,453772,698,,69,,,simpleperceptual,29,responsePerceptual,,3,,20.91666667,1,,,11
87,1.61E+12,04/12/2020 17:48,1.61E+12,1,04/12/2020 18:48,27169,8,task-yzt9,,8340662,BLIND,2542911,,complete,fgczck,,computer,Desktop or Laptop,Windows 10,Chrome 86.0.4240.198,1920x1080,1903x1080,,Meta-Task,29,Menta-first,survey-likert,477,456532,2249,"{""Q0"":4}",,,,simpleperceptual,29,confidencerating,0.666666667,3,0.555555556,21.47222222,1,,,11
88,1.61E+12,04/12/2020 17:48,1.61E+12,1,04/12/2020 18:48,27169,8,task-yzt9,,8340662,BLIND,2542911,,complete,fgczck,,computer,Desktop or Laptop,Windows 10,Chrome 86.0.4240.198,1920x1080,1903x1080,,Meta-Task,29,Menta-first,doublestim,484,460586,245,,87,1,,simpleperceptual,30,responsePerceptual,,3.1,,21.47222222,1,,,11
89,1.61E+12,04/12/2020 17:48,1.61E+12,1,04/12/2020 18:48,27169,8,task-yzt9,,8340662,BLIND,2542911,,complete,fgczck,,computer,Desktop or Laptop,Windows 10,Chrome 86.0.4240.198,1920x1080,1903x1080,,Meta-Task,29,Menta-first,survey-likert,486,461896,800,"{""Q0"":3}",,1,,simpleperceptual,30,confidencerating,0.5,3.1,0.75,22.22222222,1,,,11
90,1.61E+12,04/12/2020 17:48,1.61E+12,1,04/12/2020 18:48,27169,8,task-yzt9,,8340662,BLIND,2542911,,complete,fgczck,,computer,Desktop or Laptop,Windows 10,Chrome 86.0.4240.198,1920x1080,1903x1080,,Meta-Task,29,Menta-first,doublestim,493,466068,362,,87,1,,simpleperceptual,31,responsePerceptual,,3.1,,22.22222222,1,,,11
91,1.61E+12,04/12/2020 17:49,1.61E+12,1,04/12/2020 18:48,27169,8,task-yzt9,,8340662,BLIND,2542911,,complete,fgczck,,computer,Desktop or Laptop,Windows 10,Chrome 86.0.4240.198,1920x1080,1903x1080,,Meta-Task,29,Menta-first,survey-likert,495,467945,1367,"{""Q0"":2}",,1,,simpleperceptual,31,confidencerating,0.333333333,3.1,0.555555556,22.77777778,1,,,11
92,1.61E+12,04/12/2020 17:49,1.61E+12,1,04/12/2020 18:49,27169,8,task-yzt9,,8340662,BLIND,2542911,,complete,fgczck,,computer,Desktop or Laptop,Windows 10,Chrome 86.0.4240.198,1920x1080,1903x1080,,Meta-Task,29,Menta-first,doublestim,502,472064,314,,69,,,simpleperceptual,32,responsePerceptual,,3,,22.77777778,1,,,12
93,1.61E+12,04/12/2020 17:49,1.61E+12,1,04/12/2020 18:49,27169,8,task-yzt9,,8340662,BLIND,2542911,,complete,fgczck,,computer,Desktop or Laptop,Windows 10,Chrome 86.0.4240.198,1920x1080,1903x1080,,Meta-Task,29,Menta-first,survey-likert,504,475617,3043,"{""Q0"":4}",,,,simpleperceptual,32,confidencerating,0.666666667,3,0.555555556,23.33333333,1,,,12
94,1.61E+12,04/12/2020 17:49,1.61E+12,1,04/12/2020 18:49,27169,8,task-yzt9,,8340662,BLIND,2542911,,complete,fgczck,,computer,Desktop or Laptop,Windows 10,Chrome 86.0.4240.198,1920x1080,1903x1080,,Meta-Task,29,Menta-first,doublestim,511,479670,232,,69,1,,simpleperceptual,33,responsePerceptual,,3.1,,23.33333333,1,,,13
95,1.61E+12,04/12/2020 17:49,1.61E+12,1,04/12/2020 18:49,27169,8,task-yzt9,,8340662,BLIND,2542911,,complete,fgczck,,computer,Desktop or Laptop,Windows 10,Chrome 86.0.4240.198,1920x1080,1903x1080,,Meta-Task,29,Menta-first,survey-likert,513,481792,1598,"{""Q0"":3}",,1,,simpleperceptual,33,confidencerating,0.5,3.1,0.75,24.08333333,1,,,13
96,1.61E+12,04/12/2020 17:49,1.61E+12,1,04/12/2020 18:49,27169,8,task-yzt9,,8340662,BLIND,2542911,,complete,fgczck,,computer,Desktop or Laptop,Windows 10,Chrome 86.0.4240.198,1920x1080,1903x1080,,Meta-Task,29,Menta-first,doublestim,520,486139,534,,69,1,,simpleperceptual,34,responsePerceptual,,3.1,,24.08333333,1,,,13
97,1.61E+12,04/12/2020 17:49,1.61E+12,1,04/12/2020 18:49,27169,8,task-yzt9,,8340662,BLIND,2542911,,complete,fgczck,,computer,Desktop or Laptop,Windows 10,Chrome 86.0.4240.198,1920x1080,1903x1080,,Meta-Task,29,Menta-first,survey-likert,522,490806,4157,"{""Q0"":2}",,1,,simpleperceptual,34,confidencerating,0.333333333,3.1,0.555555556,24.63888889,1,,,13
98,1.61E+12,04/12/2020 17:49,1.61E+12,1,04/12/2020 18:49,27169,8,task-yzt9,,8340662,BLIND,2542911,,complete,fgczck,,computer,Desktop or Laptop,Windows 10,Chrome 86.0.4240.198,1920x1080,1903x1080,,Meta-Task,29,Menta-first,doublestim,529,495184,572,,69,1,,simpleperceptual,35,responsePerceptual,,3,,24.63888889,1,,,14
99,1.61E+12,04/12/2020 17:49,1.61E+12,1,04/12/2020 18:49,27169,8,task-yzt9,,8340662,BLIND,2542911,,complete,fgczck,,computer,Desktop or Laptop,Windows 10,Chrome 86.0.4240.198,1920x1080,1903x1080,,Meta-Task,29,Menta-first,survey-likert,531,497251,1555,"{""Q0"":3}",,1,,simpleperceptual,35,confidencerating,0.5,3,0.75,25.38888889,1,,,14
100,1.61E+12,04/12/2020 17:49,1.61E+12,1,04/12/2020 18:49,27169,8,task-yzt9,,8340662,BLIND,2542911,,complete,fgczck,,computer,Desktop or Laptop,Windows 10,Chrome 86.0.4240.198,1920x1080,1903x1080,,Meta-Task,29,Menta-first,doublestim,538,501474,412,,69,1,,simpleperceptual,36,responsePerceptual,,3,,25.38888889,1,,,14
101,1.61E+12,04/12/2020 17:49,1.61E+12,1,04/12/2020 18:49,27169,8,task-yzt9,,8340662,BLIND,2542911,,complete,fgczck,,computer,Desktop or Laptop,Windows 10,Chrome 86.0.4240.198,1920x1080,1903x1080,,Meta-Task,29,Menta-first,survey-likert,540,506599,4615,"{""Q0"":3}",,1,,simpleperceptual,36,confidencerating,0.5,3,0.75,26.13888889,1,,,14
102,1.61E+12,04/12/2020 17:49,1.61E+12,1,04/12/2020 18:49,27169,8,task-yzt9,,8340662,BLIND,2542911,,complete,fgczck,,computer,Desktop or Laptop,Windows 10,Chrome 86.0.4240.198,1920x1080,1903x1080,,Meta-Task,29,Menta-first,doublestim,547,510699,286,,69,1,,simpleperceptual,37,responsePerceptual,,2.9,,26.13888889,1,,,14
103,1.61E+12,04/12/2020 17:49,1.61E+12,1,04/12/2020 18:49,27169,8,task-yzt9,,8340662,BLIND,2542911,,complete,fgczck,,computer,Desktop or Laptop,Windows 10,Chrome 86.0.4240.198,1920x1080,1903x1080,,Meta-Task,29,Menta-first,survey-likert,549,512653,1444,"{""Q0"":3}",,1,,simpleperceptual,37,confidencerating,0.5,2.9,0.75,26.88888889,1,,,14
104,1.61E+12,04/12/2020 17:49,1.61E+12,1,04/12/2020 18:49,27169,8,task-yzt9,,8340662,BLIND,2542911,,complete,fgczck,,computer,Desktop or Laptop,Windows 10,Chrome 86.0.4240.198,1920x1080,1903x1080,,Meta-Task,29,Menta-first,doublestim,556,516711,252,,69,1,,simpleperceptual,38,responsePerceptual,,2.9,,26.88888889,1,,,14
105,1.61E+12,04/12/2020 17:49,1.61E+12,1,04/12/2020 18:49,27169,8,task-yzt9,,8340662,BLIND,2542911,,complete,fgczck,,computer,Desktop or Laptop,Windows 10,Chrome 86.0.4240.198,1920x1080,1903x1080,,Meta-Task,29,Menta-first,survey-likert,558,518830,1610,"{""Q0"":3}",,1,,simpleperceptual,38,confidencerating,0.5,2.9,0.75,27.63888889,1,,,14
106,1.61E+12,04/12/2020 17:49,1.61E+12,1,04/12/2020 18:49,27169,8,task-yzt9,,8340662,BLIND,2542911,,complete,fgczck,,computer,Desktop or Laptop,Windows 10,Chrome 86.0.4240.198,1920x1080,1903x1080,,Meta-Task,29,Menta-first,doublestim,565,522911,271,,69,,,simpleperceptual,39,responsePerceptual,,2.8,,27.63888889,1,,,14
107,1.61E+12,04/12/2020 17:49,1.61E+12,1,04/12/2020 18:49,27169,8,task-yzt9,,8340662,BLIND,2542911,,complete,fgczck,,computer,Desktop or Laptop,Windows 10,Chrome 86.0.4240.198,1920x1080,1903x1080,,Meta-Task,29,Menta-first,survey-likert,567,525070,1649,"{""Q0"":4}",,,,simpleperceptual,39,confidencerating,0.666666667,2.8,0.555555556,28.19444444,1,,,14
108,1.61E+12,04/12/2020 17:50,1.61E+12,1,04/12/2020 18:50,27169,8,task-yzt9,,8340662,BLIND,2542911,,complete,fgczck,,computer,Desktop or Laptop,Windows 10,Chrome 86.0.4240.198,1920x1080,1903x1080,,Meta-Task,29,Menta-first,doublestim,574,529135,254,,69,1,,simpleperceptual,40,responsePerceptual,,2.9,,28.19444444,1,,,15
109,1.61E+12,04/12/2020 17:50,1.61E+12,1,04/12/2020 18:50,27169,8,task-yzt9,,8340662,BLIND,2542911,,complete,fgczck,,computer,Desktop or Laptop,Windows 10,Chrome 86.0.4240.198,1920x1080,1903x1080,,Meta-Task,29,Menta-first,survey-likert,576,531731,2085,"{""Q0"":5}",,1,,simpleperceptual,40,confidencerating,0.833333333,2.9,0.972222222,29.16666667,1,,,15
110,1.61E+12,04/12/2020 17:50,1.61E+12,1,04/12/2020 18:50,27169,8,task-yzt9,,8340662,BLIND,2542911,,complete,fgczck,,computer,Desktop or Laptop,Windows 10,Chrome 86.0.4240.198,1920x1080,1903x1080,,Meta-Task,29,Menta-first,doublestim,583,535856,294,,87,1,,simpleperceptual,41,responsePerceptual,,2.9,,29.16666667,1,,,15
111,1.61E+12,04/12/2020 17:50,1.61E+12,1,04/12/2020 18:50,27169,8,task-yzt9,,8340662,BLIND,2542911,,complete,fgczck,,computer,Desktop or Laptop,Windows 10,Chrome 86.0.4240.198,1920x1080,1903x1080,,Meta-Task,29,Menta-first,survey-likert,585,537768,1402,"{""Q0"":5}",,1,,simpleperceptual,41,confidencerating,0.833333333,2.9,0.972222222,30.13888889,1,,,15
112,1.61E+12,04/12/2020 17:50,1.61E+12,1,04/12/2020 18:50,27169,8,task-yzt9,,8340662,BLIND,2542911,,complete,fgczck,,computer,Desktop or Laptop,Windows 10,Chrome 86.0.4240.198,1920x1080,1903x1080,,Meta-Task,29,Menta-first,doublestim,592,541871,296,,69,1,,simpleperceptual,42,responsePerceptual,,2.8,,30.13888889,1,,,16
113,1.61E+12,04/12/2020 17:50,1.61E+12,1,04/12/2020 18:50,27169,8,task-yzt9,,8340662,BLIND,2542911,,complete,fgczck,,computer,Desktop or Laptop,Windows 10,Chrome 86.0.4240.198,1920x1080,1903x1080,,Meta-Task,29,Menta-first,survey-likert,594,544731,2351,"{""Q0"":4}",,1,,simpleperceptual,42,confidencerating,0.666666667,2.8,0.888888889,31.02777778,1,,,16
114,1.61E+12,04/12/2020 17:57,1.61E+12,1,04/12/2020 18:57,27169,8,task-yzt9,,8340662,BLIND,2542911,,complete,fgczck,,computer,Desktop or Laptop,Windows 10,Chrome 86.0.4240.198,1920x1080,1903x1080,,Meta-Task,29,Menta-first,doublestim,602,950122,387,,87,1,,simpleperceptual,43,responsePerceptual,,2.8,,31.02777778,1,,,16
115,1.61E+12,04/12/2020 17:57,1.61E+12,1,04/12/2020 18:57,27169,8,task-yzt9,,8340662,BLIND,2542911,,complete,fgczck,,computer,Desktop or Laptop,Windows 10,Chrome 86.0.4240.198,1920x1080,1903x1080,,Meta-Task,29,Menta-first,survey-likert,604,960826,10192,"{""Q0"":4}",,1,,simpleperceptual,43,confidencerating,0.666666667,2.8,0.888888889,31.91666667,1,,,16
116,1.61E+12,04/12/2020 17:57,1.61E+12,1,04/12/2020 18:57,27169,8,task-yzt9,,8340662,BLIND,2542911,,complete,fgczck,,computer,Desktop or Laptop,Windows 10,Chrome 86.0.4240.198,1920x1080,1903x1080,,Meta-Task,29,Menta-first,doublestim,611,964802,166,,69,1,,simpleperceptual,44,responsePerceptual,,2.8,,31.91666667,1,,,16
117,1.61E+12,04/12/2020 17:57,1.61E+12,1,04/12/2020 18:57,27169,8,task-yzt9,,8340662,BLIND,2542911,,complete,fgczck,,computer,Desktop or Laptop,Windows 10,Chrome 86.0.4240.198,1920x1080,1903x1080,,Meta-Task,29,Menta-first,survey-likert,613,966709,1398,"{""Q0"":4}",,1,,simpleperceptual,44,confidencerating,0.666666667,2.8,0.888888889,32.80555556,1,,,16
118,1.61E+12,04/12/2020 17:57,1.61E+12,1,04/12/2020 18:57,27169,8,task-yzt9,,8340662,BLIND,2542911,,complete,fgczck,,computer,Desktop or Laptop,Windows 10,Chrome 86.0.4240.198,1920x1080,1903x1080,,Meta-Task,29,Menta-first,doublestim,620,970803,288,,69,,,simpleperceptual,45,responsePerceptual,,2.8,,32.80555556,1,,,16
119,1.61E+12,04/12/2020 17:57,1.61E+12,1,04/12/2020 18:57,27169,8,task-yzt9,,8340662,BLIND,2542911,,complete,fgczck,,computer,Desktop or Laptop,Windows 10,Chrome 86.0.4240.198,1920x1080,1903x1080,,Meta-Task,29,Menta-first,survey-likert,622,972473,1144,"{""Q0"":4}",,,,simpleperceptual,45,confidencerating,0.666666667,2.8,0.555555556,33.36111111,1,,,16
120,1.61E+12,04/12/2020 17:57,1.61E+12,1,04/12/2020 18:57,27169,8,task-yzt9,,8340662,BLIND,2542911,,complete,fgczck,,computer,Desktop or Laptop,Windows 10,Chrome 86.0.4240.198,1920x1080,1903x1080,,Meta-Task,29,Menta-first,doublestim,629,976405,126,,69,1,,simpleperceptual,46,responsePerceptual,,2.8,,33.36111111,1,,,16
121,1.61E+12,04/12/2020 17:57,1.61E+12,1,04/12/2020 18:57,27169,8,task-yzt9,,8340662,BLIND,2542911,,complete,fgczck,,computer,Desktop or Laptop,Windows 10,Chrome 86.0.4240.198,1920x1080,1903x1080,,Meta-Task,29,Menta-first,survey-likert,631,988466,11552,"{""Q0"":4}",,1,,simpleperceptual,46,confidencerating,0.666666667,2.8,0.888888889,34.25,1,,,16
122,1.61E+12,04/12/2020 17:57,1.61E+12,1,04/12/2020 18:57,27169,8,task-yzt9,,8340662,BLIND,2542911,,complete,fgczck,,computer,Desktop or Laptop,Windows 10,Chrome 86.0.4240.198,1920x1080,1903x1080,,Meta-Task,29,Menta-first,doublestim,638,992580,295,,69,1,,simpleperceptual,47,responsePerceptual,,2.8,,34.25,1,,,16
123,1.61E+12,04/12/2020 17:57,1.61E+12,1,04/12/2020 18:57,27169,8,task-yzt9,,8340662,BLIND,2542911,,complete,fgczck,,computer,Desktop or Laptop,Windows 10,Chrome 86.0.4240.198,1920x1080,1903x1080,,Meta-Task,29,Menta-first,survey-likert,640,995096,2005,"{""Q0"":4}",,1,,simpleperceptual,47,confidencerating,0.666666667,2.8,0.888888889,35.13888889,1,,,16
124,1.61E+12,04/12/2020 17:57,1.61E+12,1,04/12/2020 18:57,27169,8,task-yzt9,,8340662,BLIND,2542911,,complete,fgczck,,computer,Desktop or Laptop,Windows 10,Chrome 86.0.4240.198,1920x1080,1903x1080,,Meta-Task,29,Menta-first,doublestim,647,999265,353,,69,,,simpleperceptual,48,responsePerceptual,,2.8,,35.13888889,1,,,16
125,1.61E+12,04/12/2020 17:57,1.61E+12,1,04/12/2020 18:57,27169,8,task-yzt9,,8340662,BLIND,2542911,,complete,fgczck,,computer,Desktop or Laptop,Windows 10,Chrome 86.0.4240.198,1920x1080,1903x1080,,Meta-Task,29,Menta-first,survey-likert,649,1000498,723,"{""Q0"":3}",,,,simpleperceptual,48,confidencerating,0.5,2.8,0.75,35.88888889,1,,,16
126,1.61E+12,04/12/2020 17:57,1.61E+12,1,04/12/2020 18:57,27169,8,task-yzt9,,8340662,BLIND,2542911,,complete,fgczck,,computer,Desktop or Laptop,Windows 10,Chrome 86.0.4240.198,1920x1080,1903x1080,,Meta-Task,29,Menta-first,doublestim,656,1004575,265,,69,,,simpleperceptual,49,responsePerceptual,,2.8,,35.88888889,1,,,16
127,1.61E+12,04/12/2020 17:57,1.61E+12,1,04/12/2020 18:57,27169,8,task-yzt9,,8340662,BLIND,2542911,,complete,fgczck,,computer,Desktop or Laptop,Windows 10,Chrome 86.0.4240.198,1920x1080,1903x1080,,Meta-Task,29,Menta-first,survey-likert,658,1005647,561,"{""Q0"":3}",,,,simpleperceptual,49,confidencerating,0.5,2.8,0.75,36.63888889,1,,,16
128,1.61E+12,04/12/2020 17:58,1.61E+12,1,04/12/2020 18:58,27169,8,task-yzt9,,8340662,BLIND,2542911,,complete,fgczck,,computer,Desktop or Laptop,Windows 10,Chrome 86.0.4240.198,1920x1080,1903x1080,,Meta-Task,29,Menta-first,doublestim,665,1009716,253,,69,,,simpleperceptual,50,responsePerceptual,,2.8,,36.63888889,1,,,16
129,1.61E+12,04/12/2020 17:58,1.61E+12,1,04/12/2020 18:58,27169,8,task-yzt9,,8340662,BLIND,2542911,,complete,fgczck,,computer,Desktop or Laptop,Windows 10,Chrome 86.0.4240.198,1920x1080,1903x1080,,Meta-Task,29,Menta-first,survey-likert,667,1019865,9627,"{""Q0"":4}",,,,simpleperceptual,50,confidencerating,0.666666667,2.8,0.555555556,37.19444444,1,,,16
130,1.61E+12,04/12/2020 17:58,1.61E+12,1,04/12/2020 18:58,27169,8,task-yzt9,,8340662,BLIND,2542911,,complete,fgczck,,computer,Desktop or Laptop,Windows 10,Chrome 86.0.4240.198,1920x1080,1903x1080,,Meta-Task,29,Menta-first,doublestim,674,1023904,218,,69,,,simpleperceptual,51,responsePerceptual,,2.8,,37.19444444,1,,,16
131,1.61E+12,04/12/2020 17:58,1.61E+12,1,04/12/2020 18:58,27169,8,task-yzt9,,8340662,BLIND,2542911,,complete,fgczck,,computer,Desktop or Laptop,Windows 10,Chrome 86.0.4240.198,1920x1080,1903x1080,,Meta-Task,29,Menta-first,survey-likert,676,1025478,1063,"{""Q0"":2}",,,,simpleperceptual,51,confidencerating,0.333333333,2.8,0.888888889,38.08333333,1,,,16
132,1.61E+12,04/12/2020 17:58,1.61E+12,1,04/12/2020 18:58,27169,8,task-yzt9,,8340662,BLIND,2542911,,complete,fgczck,,computer,Desktop or Laptop,Windows 10,Chrome 86.0.4240.198,1920x1080,1903x1080,,Meta-Task,29,Menta-first,doublestim,683,1029488,205,,69,,,simpleperceptual,52,responsePerceptual,,2.8,,38.08333333,1,,,16
133,1.61E+12,04/12/2020 17:58,1.61E+12,1,04/12/2020 18:58,27169,8,task-yzt9,,8340662,BLIND,2542911,,complete,fgczck,,computer,Desktop or Laptop,Windows 10,Chrome 86.0.4240.198,1920x1080,1903x1080,,Meta-Task,29,Menta-first,survey-likert,685,1030840,842,"{""Q0"":3}",,,,simpleperceptual,52,confidencerating,0.5,2.8,0.75,38.83333333,1,,,16
134,1.61E+12,04/12/2020 17:58,1.61E+12,1,04/12/2020 18:58,27169,8,task-yzt9,,8340662,BLIND,2542911,,complete,fgczck,,computer,Desktop or Laptop,Windows 10,Chrome 86.0.4240.198,1920x1080,1903x1080,,Meta-Task,29,Menta-first,doublestim,692,1035399,749,,69,1,,simpleperceptual,53,responsePerceptual,,2.8,,38.83333333,1,,,16
135,1.61E+12,04/12/2020 17:58,1.61E+12,1,04/12/2020 18:58,27169,8,task-yzt9,,8340662,BLIND,2542911,,complete,fgczck,,computer,Desktop or Laptop,Windows 10,Chrome 86.0.4240.198,1920x1080,1903x1080,,Meta-Task,29,Menta-first,survey-likert,694,1037338,1427,"{""Q0"":4}",,1,,simpleperceptual,53,confidencerating,0.666666667,2.8,0.888888889,39.72222222,1,,,16
136,1.61E+12,04/12/2020 17:58,1.61E+12,1,04/12/2020 18:58,27169,8,task-yzt9,,8340662,BLIND,2542911,,complete,fgczck,,computer,Desktop or Laptop,Windows 10,Chrome 86.0.4240.198,1920x1080,1903x1080,,Meta-Task,29,Menta-first,doublestim,701,1041377,229,,69,1,,simpleperceptual,54,responsePerceptual,,2.8,,39.72222222,1,,,16
137,1.61E+12,04/12/2020 17:58,1.61E+12,1,04/12/2020 18:58,27169,8,task-yzt9,,8340662,BLIND,2542911,,complete,fgczck,,computer,Desktop or Laptop,Windows 10,Chrome 86.0.4240.198,1920x1080,1903x1080,,Meta-Task,29,Menta-first,survey-likert,703,1043212,1323,"{""Q0"":4}",,1,,simpleperceptual,54,confidencerating,0.666666667,2.8,0.888888889,40.61111111,1,,,16
138,1.61E+12,04/12/2020 17:58,1.61E+12,1,04/12/2020 18:58,27169,8,task-yzt9,,8340662,BLIND,2542911,,complete,fgczck,,computer,Desktop or Laptop,Windows 10,Chrome 86.0.4240.198,1920x1080,1903x1080,,Meta-Task,29,Menta-first,doublestim,710,1047262,233,,69,1,,simpleperceptual,55,responsePerceptual,,2.8,,40.61111111,1,,,16
139,1.61E+12,04/12/2020 17:58,1.61E+12,1,04/12/2020 18:58,27169,8,task-yzt9,,8340662,BLIND,2542911,,complete,fgczck,,computer,Desktop or Laptop,Windows 10,Chrome 86.0.4240.198,1920x1080,1903x1080,,Meta-Task,29,Menta-first,survey-likert,712,1048349,577,"{""Q0"":3}",,1,,simpleperceptual,55,confidencerating,0.5,2.8,0.75,41.36111111,1,,,16
140,1.61E+12,04/12/2020 17:58,1.61E+12,1,04/12/2020 18:58,27169,8,task-yzt9,,8340662,BLIND,2542911,,complete,fgczck,,computer,Desktop or Laptop,Windows 10,Chrome 86.0.4240.198,1920x1080,1903x1080,,Meta-Task,29,Menta-first,doublestim,719,1054574,2409,,69,1,,simpleperceptual,56,responsePerceptual,,2.8,,41.36111111,1,,,16
141,1.61E+12,04/12/2020 17:58,1.61E+12,1,04/12/2020 18:58,27169,8,task-yzt9,,8340662,BLIND,2542911,,complete,fgczck,,computer,Desktop or Laptop,Windows 10,Chrome 86.0.4240.198,1920x1080,1903x1080,,Meta-Task,29,Menta-first,survey-likert,721,1057834,2749,"{""Q0"":2}",,1,,simpleperceptual,56,confidencerating,0.333333333,2.8,0.555555556,41.91666667,1,,,16
142,1.61E+12,04/12/2020 17:58,1.61E+12,1,04/12/2020 18:58,27169,8,task-yzt9,,8340662,BLIND,2542911,,complete,fgczck,,computer,Desktop or Laptop,Windows 10,Chrome 86.0.4240.198,1920x1080,1903x1080,,Meta-Task,29,Menta-first,doublestim,728,1061869,224,,69,1,,simpleperceptual,57,responsePerceptual,,2.8,,41.91666667,1,,,16
143,1.61E+12,04/12/2020 17:59,1.61E+12,1,04/12/2020 18:59,27169,8,task-yzt9,,8340662,BLIND,2542911,,complete,fgczck,,computer,Desktop or Laptop,Windows 10,Chrome 86.0.4240.198,1920x1080,1903x1080,,Meta-Task,29,Menta-first,survey-likert,730,1073499,11119,"{""Q0"":3}",,1,,simpleperceptual,57,confidencerating,0.5,2.8,0.75,42.66666667,1,,,16
144,1.61E+12,04/12/2020 17:59,1.61E+12,1,04/12/2020 18:59,27169,8,task-yzt9,,8340662,BLIND,2542911,,complete,fgczck,,computer,Desktop or Laptop,Windows 10,Chrome 86.0.4240.198,1920x1080,1903x1080,,Meta-Task,29,Menta-first,doublestim,737,1077649,336,,87,1,,simpleperceptual,58,responsePerceptual,,2.8,,42.66666667,1,,,16
145,1.61E+12,04/12/2020 17:59,1.61E+12,1,04/12/2020 18:59,27169,8,task-yzt9,,8340662,BLIND,2542911,,complete,fgczck,,computer,Desktop or Laptop,Windows 10,Chrome 86.0.4240.198,1920x1080,1903x1080,,Meta-Task,29,Menta-first,survey-likert,739,1084819,6652,"{""Q0"":3}",,1,,simpleperceptual,58,confidencerating,0.5,2.8,0.75,43.41666667,1,,,16
146,1.61E+12,04/12/2020 17:59,1.61E+12,1,04/12/2020 18:59,27169,8,task-yzt9,,8340662,BLIND,2542911,,complete,fgczck,,computer,Desktop or Laptop,Windows 10,Chrome 86.0.4240.198,1920x1080,1903x1080,,Meta-Task,29,Menta-first,doublestim,746,1090168,1537,,87,,,simpleperceptual,59,responsePerceptual,,2.8,,43.41666667,1,,,16
147,1.61E+12,04/12/2020 17:59,1.61E+12,1,04/12/2020 18:59,27169,8,task-yzt9,,8340662,BLIND,2542911,,complete,fgczck,,computer,Desktop or Laptop,Windows 10,Chrome 86.0.4240.198,1920x1080,1903x1080,,Meta-Task,29,Menta-first,survey-likert,748,1092776,2098,"{""Q0"":4}",,,,simpleperceptual,59,confidencerating,0.666666667,2.8,0.555555556,43.97222222,1,,,16
148,1.61E+12,04/12/2020 17:59,1.61E+12,1,04/12/2020 18:59,27169,8,task-yzt9,,8340662,BLIND,2542911,,complete,fgczck,,computer,Desktop or Laptop,Windows 10,Chrome 86.0.4240.198,1920x1080,1903x1080,,Meta-Task,29,Menta-first,doublestim,755,1096900,305,,87,1,,simpleperceptual,60,responsePerceptual,,2.8,,43.97222222,1,,,16
149,1.61E+12,04/12/2020 17:59,1.61E+12,1,04/12/2020 18:59,27169,8,task-yzt9,,8340662,BLIND,2542911,,complete,fgczck,,computer,Desktop or Laptop,Windows 10,Chrome 86.0.4240.198,1920x1080,1903x1080,,Meta-Task,29,Menta-first,survey-likert,757,1101245,3831,"{""Q0"":4}",,1,,simpleperceptual,60,confidencerating,0.666666667,2.8,0.888888889,44.86111111,1,,,16
150,1.61E+12,04/12/2020 17:59,1.61E+12,1,04/12/2020 18:59,27169,8,task-yzt9,,8340662,BLIND,2542911,,complete,fgczck,,computer,Desktop or Laptop,Windows 10,Chrome 86.0.4240.198,1920x1080,1903x1080,,Meta-Task,29,Menta-first,doublestim,764,1105310,252,,69,1,,simpleperceptual,61,responsePerceptual,,2.8,,44.86111111,1,,,16
151,1.61E+12,04/12/2020 17:59,1.61E+12,1,04/12/2020 18:59,27169,8,task-yzt9,,8340662,BLIND,2542911,,complete,fgczck,,computer,Desktop or Laptop,Windows 10,Chrome 86.0.4240.198,1920x1080,1903x1080,,Meta-Task,29,Menta-first,survey-likert,766,1106290,470,"{""Q0"":3}",,1,,simpleperceptual,62,confidencerating,0.5,2.8,0.75,45.61111111,1,,,16
152,1.61E+12,04/12/2020 17:59,1.61E+12,1,04/12/2020 18:59,27169,8,task-yzt9,,8340662,BLIND,2542911,,complete,fgczck,,computer,Desktop or Laptop,Windows 10,Chrome 86.0.4240.198,1920x1080,1903x1080,,Meta-Task,29,Menta-first,doublestim,773,1110367,269,,87,1,,simpleperceptual,62,responsePerceptual,,2.8,,45.61111111,1,,,16
153,1.61E+12,04/12/2020 17:59,1.61E+12,1,04/12/2020 18:59,27169,8,task-yzt9,,8340662,BLIND,2542911,,complete,fgczck,,computer,Desktop or Laptop,Windows 10,Chrome 86.0.4240.198,1920x1080,1903x1080,,Meta-Task,29,Menta-first,survey-likert,775,1111996,1119,"{""Q0"":3}",,1,,simpleperceptual,62,confidencerating,0.5,2.8,0.75,46.36111111,1,,,16
154,1.61E+12,04/12/2020 17:59,1.61E+12,1,04/12/2020 18:59,27169,8,task-yzt9,,8340662,BLIND,2542911,,complete,fgczck,,computer,Desktop or Laptop,Windows 10,Chrome 86.0.4240.198,1920x1080,1903x1080,,Meta-Task,29,Menta-first,doublestim,782,1119538,3727,,69,,,simpleperceptual,63,responsePerceptual,,2.8,,46.36111111,1,,,16
155,1.61E+12,04/12/2020 18:00,1.61E+12,1,04/12/2020 19:00,27169,8,task-yzt9,,8340662,BLIND,2542911,,complete,fgczck,,computer,Desktop or Laptop,Windows 10,Chrome 86.0.4240.198,1920x1080,1903x1080,,Meta-Task,29,Menta-first,survey-likert,784,1128580,8519,"{""Q0"":3}",,,,simpleperceptual,63,confidencerating,0.5,2.8,0.75,47.11111111,1,,,16
156,1.61E+12,04/12/2020 18:00,1.61E+12,1,04/12/2020 19:00,27169,8,task-yzt9,,8340662,BLIND,2542911,,complete,fgczck,,computer,Desktop or Laptop,Windows 10,Chrome 86.0.4240.198,1920x1080,1903x1080,,Meta-Task,29,Menta-first,doublestim,791,1132691,293,,69,1,,simpleperceptual,64,responsePerceptual,,2.8,,47.11111111,1,,,16
157,1.61E+12,04/12/2020 18:00,1.61E+12,1,04/12/2020 19:00,27169,8,task-yzt9,,8340662,BLIND,2542911,,complete,fgczck,,computer,Desktop or Laptop,Windows 10,Chrome 86.0.4240.198,1920x1080,1903x1080,,Meta-Task,29,Menta-first,survey-likert,793,1155932,22730,"{""Q0"":3}",,1,,simpleperceptual,64,confidencerating,0.5,2.8,0.75,47.86111111,1,,,16
158,1.61E+12,04/12/2020 18:00,1.61E+12,1,04/12/2020 19:00,27169,8,task-yzt9,,8340662,BLIND,2542911,,complete,fgczck,,computer,Desktop or Laptop,Windows 10,Chrome 86.0.4240.198,1920x1080,1903x1080,,Meta-Task,29,Menta-first,doublestim,800,1160564,806,,69,,,simpleperceptual,65,responsePerceptual,,2.8,,47.86111111,1,,,16
159,1.61E+12,04/12/2020 18:00,1.61E+12,1,04/12/2020 19:00,27169,8,task-yzt9,,8340662,BLIND,2542911,,complete,fgczck,,computer,Desktop or Laptop,Windows 10,Chrome 86.0.4240.198,1920x1080,1903x1080,,Meta-Task,29,Menta-first,survey-likert,802,1161976,900,"{""Q0"":3}",,,,simpleperceptual,65,confidencerating,0.5,2.8,0.75,48.61111111,1,,,16
160,1.61E+12,04/12/2020 18:00,1.61E+12,1,04/12/2020 19:00,27169,8,task-yzt9,,8340662,BLIND,2542911,,complete,fgczck,,computer,Desktop or Laptop,Windows 10,Chrome 86.0.4240.198,1920x1080,1903x1080,,Meta-Task,29,Menta-first,doublestim,809,1166354,567,,69,,,simpleperceptual,66,responsePerceptual,,2.8,,48.61111111,1,,,16
161,1.61E+12,04/12/2020 18:00,1.61E+12,1,04/12/2020 19:00,27169,8,task-yzt9,,8340662,BLIND,2542911,,complete,fgczck,,computer,Desktop or Laptop,Windows 10,Chrome 86.0.4240.198,1920x1080,1903x1080,,Meta-Task,29,Menta-first,survey-likert,811,1167456,574,"{""Q0"":3}",,,,simpleperceptual,66,confidencerating,0.5,2.8,0.75,49.36111111,1,,,16
162,1.61E+12,04/12/2020 18:00,1.61E+12,1,04/12/2020 19:00,27169,8,task-yzt9,,8340662,BLIND,2542911,,complete,fgczck,,computer,Desktop or Laptop,Windows 10,Chrome 86.0.4240.198,1920x1080,1903x1080,,Meta-Task,29,Menta-first,doublestim,818,1171483,215,,69,,,simpleperceptual,67,responsePerceptual,,2.8,,49.36111111,1,,,16
163,1.61E+12,04/12/2020 18:00,1.61E+12,1,04/12/2020 19:00,27169,8,task-yzt9,,8340662,BLIND,2542911,,complete,fgczck,,computer,Desktop or Laptop,Windows 10,Chrome 86.0.4240.198,1920x1080,1903x1080,,Meta-Task,29,Menta-first,survey-likert,820,1173154,1159,"{""Q0"":2}",,,,simpleperceptual,67,confidencerating,0.333333333,2.8,0.888888889,50.25,1,,,16
164,1.61E+12,04/12/2020 18:00,1.61E+12,1,04/12/2020 19:00,27169,8,task-yzt9,,8340662,BLIND,2542911,,complete,fgczck,,computer,Desktop or Laptop,Windows 10,Chrome 86.0.4240.198,1920x1080,1903x1080,,Meta-Task,29,Menta-first,doublestim,827,1177178,210,,69,1,,simpleperceptual,68,responsePerceptual,,2.8,,50.25,1,,,16
165,1.61E+12,04/12/2020 18:00,1.61E+12,1,04/12/2020 19:00,27169,8,task-yzt9,,8340662,BLIND,2542911,,complete,fgczck,,computer,Desktop or Laptop,Windows 10,Chrome 86.0.4240.198,1920x1080,1903x1080,,Meta-Task,29,Menta-first,survey-likert,829,1179051,1362,"{""Q0"":3}",,1,,simpleperceptual,68,confidencerating,0.5,2.8,0.75,51,1,,,16
166,1.61E+12,04/12/2020 18:00,1.61E+12,1,04/12/2020 19:00,27169,8,task-yzt9,,8340662,BLIND,2542911,,complete,fgczck,,computer,Desktop or Laptop,Windows 10,Chrome 86.0.4240.198,1920x1080,1903x1080,,Meta-Task,29,Menta-first,doublestim,836,1183112,256,,69,1,,simpleperceptual,69,responsePerceptual,,2.8,,51,1,,,16
167,1.61E+12,04/12/2020 18:00,1.61E+12,1,04/12/2020 19:00,27169,8,task-yzt9,,8340662,BLIND,2542911,,complete,fgczck,,computer,Desktop or Laptop,Windows 10,Chrome 86.0.4240.198,1920x1080,1903x1080,,Meta-Task,29,Menta-first,survey-likert,838,1184130,506,"{""Q0"":3}",,1,,simpleperceptual,69,confidencerating,0.5,2.8,0.75,51.75,1,,,16
168,1.61E+12,04/12/2020 18:01,1.61E+12,1,04/12/2020 19:00,27169,8,task-yzt9,,8340662,BLIND,2542911,,complete,fgczck,,computer,Desktop or Laptop,Windows 10,Chrome 86.0.4240.198,1920x1080,1903x1080,,Meta-Task,29,Menta-first,doublestim,845,1188154,216,,87,1,,simpleperceptual,70,responsePerceptual,,2.8,,51.75,1,,,16
169,1.61E+12,04/12/2020 18:01,1.61E+12,1,04/12/2020 19:01,27169,8,task-yzt9,,8340662,BLIND,2542911,,complete,fgczck,,computer,Desktop or Laptop,Windows 10,Chrome 86.0.4240.198,1920x1080,1903x1080,,Meta-Task,29,Menta-first,survey-likert,847,1191458,2794,"{""Q0"":4}",,1,,simpleperceptual,70,confidencerating,0.666666667,2.8,0.888888889,52.63888889,1,,,16
170,1.61E+12,04/12/2020 18:01,1.61E+12,1,04/12/2020 19:01,27169,8,task-yzt9,,8340662,BLIND,2542911,,complete,fgczck,,computer,Desktop or Laptop,Windows 10,Chrome 86.0.4240.198,1920x1080,1903x1080,,Meta-Task,29,Menta-first,doublestim,854,1195507,231,,69,,,simpleperceptual,71,responsePerceptual,,2.8,,52.63888889,1,,,16
171,1.61E+12,04/12/2020 18:01,1.61E+12,1,04/12/2020 19:01,27169,8,task-yzt9,,8340662,BLIND,2542911,,complete,fgczck,,computer,Desktop or Laptop,Windows 10,Chrome 86.0.4240.198,1920x1080,1903x1080,,Meta-Task,29,Menta-first,survey-likert,856,1197364,1348,"{""Q0"":5}",,,,simpleperceptual,71,confidencerating,0.833333333,2.8,0.305555556,52.94444444,1,,,16
172,1.61E+12,04/12/2020 18:01,1.61E+12,1,04/12/2020 19:01,27169,8,task-yzt9,,8340662,BLIND,2542911,,complete,fgczck,,computer,Desktop or Laptop,Windows 10,Chrome 86.0.4240.198,1920x1080,1903x1080,,Meta-Task,29,Menta-first,doublestim,863,1201445,253,,69,,,simpleperceptual,72,responsePerceptual,,2.8,,52.94444444,1,,,16
173,1.61E+12,04/12/2020 18:01,1.61E+12,1,04/12/2020 19:01,27169,8,task-yzt9,,8340662,BLIND,2542911,,complete,fgczck,,computer,Desktop or Laptop,Windows 10,Chrome 86.0.4240.198,1920x1080,1903x1080,,Meta-Task,29,Menta-first,survey-likert,865,1203448,1493,"{""Q0"":4}",,,,simpleperceptual,72,confidencerating,0.666666667,2.8,0.555555556,53.5,1,,,16
174,1.61E+12,04/12/2020 18:01,1.61E+12,1,04/12/2020 19:01,27169,8,task-yzt9,,8340662,BLIND,2542911,,complete,fgczck,,computer,Desktop or Laptop,Windows 10,Chrome 86.0.4240.198,1920x1080,1903x1080,,Meta-Task,29,Menta-first,doublestim,872,1207488,223,,69,,,simpleperceptual,73,responsePerceptual,,2.8,,53.5,1,,,16
175,1.61E+12,04/12/2020 18:01,1.61E+12,1,04/12/2020 19:01,27169,8,task-yzt9,,8340662,BLIND,2542911,,complete,fgczck,,computer,Desktop or Laptop,Windows 10,Chrome 86.0.4240.198,1920x1080,1903x1080,,Meta-Task,29,Menta-first,survey-likert,874,1208461,460,"{""Q0"":3}",,,,simpleperceptual,73,confidencerating,0.5,2.8,0.75,54.25,1,,,16
176,1.61E+12,04/12/2020 18:01,1.61E+12,1,04/12/2020 19:01,27169,8,task-yzt9,,8340662,BLIND,2542911,,complete,fgczck,,computer,Desktop or Laptop,Windows 10,Chrome 86.0.4240.198,1920x1080,1903x1080,,Meta-Task,29,Menta-first,doublestim,881,1212445,170,,69,,,simpleperceptual,74,responsePerceptual,,2.8,,54.25,1,,,16
177,1.61E+12,04/12/2020 18:01,1.61E+12,1,04/12/2020 19:01,27169,8,task-yzt9,,8340662,BLIND,2542911,,complete,fgczck,,computer,Desktop or Laptop,Windows 10,Chrome 86.0.4240.198,1920x1080,1903x1080,,Meta-Task,29,Menta-first,survey-likert,883,1213379,425,"{""Q0"":3}",,,,simpleperceptual,74,confidencerating,0.5,2.8,0.75,55,1,,,16
178,1.61E+12,04/12/2020 18:01,1.61E+12,1,04/12/2020 19:01,27169,8,task-yzt9,,8340662,BLIND,2542911,,complete,fgczck,,computer,Desktop or Laptop,Windows 10,Chrome 86.0.4240.198,1920x1080,1903x1080,,Meta-Task,29,Menta-first,doublestim,890,1217443,241,,69,1,,simpleperceptual,75,responsePerceptual,,2.8,,55,1,,,16
179,1.61E+12,04/12/2020 18:01,1.61E+12,1,04/12/2020 19:01,27169,8,task-yzt9,,8340662,BLIND,2542911,,complete,fgczck,,computer,Desktop or Laptop,Windows 10,Chrome 86.0.4240.198,1920x1080,1903x1080,,Meta-Task,29,Menta-first,survey-likert,892,1220019,2067,"{""Q0"":2}",,1,,simpleperceptual,75,confidencerating,0.333333333,2.8,0.555555556,55.55555556,1,,,16
180,1.61E+12,04/12/2020 18:01,1.61E+12,1,04/12/2020 19:01,27169,8,task-yzt9,,8340662,BLIND,2542911,,complete,fgczck,,computer,Desktop or Laptop,Windows 10,Chrome 86.0.4240.198,1920x1080,1903x1080,,Meta-Task,29,Menta-first,doublestim,899,1224001,174,,69,1,,simpleperceptual,76,responsePerceptual,,2.8,,55.55555556,1,,,16
181,1.61E+12,04/12/2020 18:01,1.61E+12,1,04/12/2020 19:01,27169,8,task-yzt9,,8340662,BLIND,2542911,,complete,fgczck,,computer,Desktop or Laptop,Windows 10,Chrome 86.0.4240.198,1920x1080,1903x1080,,Meta-Task,29,Menta-first,survey-likert,901,1225676,1165,"{""Q0"":4}",,1,,simpleperceptual,76,confidencerating,0.666666667,2.8,0.888888889,56.44444444,1,,,16
182,1.61E+12,04/12/2020 18:01,1.61E+12,1,04/12/2020 19:01,27169,8,task-yzt9,,8340662,BLIND,2542911,,complete,fgczck,,computer,Desktop or Laptop,Windows 10,Chrome 86.0.4240.198,1920x1080,1903x1080,,Meta-Task,29,Menta-first,doublestim,908,1229791,303,,69,1,,simpleperceptual,77,responsePerceptual,,2.8,,56.44444444,1,,,16
183,1.61E+12,04/12/2020 18:01,1.61E+12,1,04/12/2020 19:01,27169,8,task-yzt9,,8340662,BLIND,2542911,,complete,fgczck,,computer,Desktop or Laptop,Windows 10,Chrome 86.0.4240.198,1920x1080,1903x1080,,Meta-Task,29,Menta-first,survey-likert,910,1232433,2131,"{""Q0"":4}",,1,,simpleperceptual,77,confidencerating,0.666666667,2.8,0.888888889,57.33333333,1,,,16
184,1.61E+12,04/12/2020 18:01,1.61E+12,1,04/12/2020 19:01,27169,8,task-yzt9,,8340662,BLIND,2542911,,complete,fgczck,,computer,Desktop or Laptop,Windows 10,Chrome 86.0.4240.198,1920x1080,1903x1080,,Meta-Task,29,Menta-first,doublestim,917,1236483,222,,69,1,,simpleperceptual,78,responsePerceptual,,2.8,,57.33333333,1,,,16
185,1.61E+12,04/12/2020 18:01,1.61E+12,1,04/12/2020 19:01,27169,8,task-yzt9,,8340662,BLIND,2542911,,complete,fgczck,,computer,Desktop or Laptop,Windows 10,Chrome 86.0.4240.198,1920x1080,1903x1080,,Meta-Task,29,Menta-first,survey-likert,919,1238198,1205,"{""Q0"":4}",,1,,simpleperceptual,78,confidencerating,0.666666667,2.8,0.888888889,58.22222222,1,,,16
186,1.61E+12,04/12/2020 18:01,1.61E+12,1,04/12/2020 19:01,27169,8,task-yzt9,,8340662,BLIND,2542911,,complete,fgczck,,computer,Desktop or Laptop,Windows 10,Chrome 86.0.4240.198,1920x1080,1903x1080,,Meta-Task,29,Menta-first,doublestim,926,1242233,229,,69,1,,simpleperceptual,79,responsePerceptual,,2.8,,58.22222222,1,,,16
187,1.61E+12,04/12/2020 18:02,1.61E+12,1,04/12/2020 19:01,27169,8,task-yzt9,,8340662,BLIND,2542911,,complete,fgczck,,computer,Desktop or Laptop,Windows 10,Chrome 86.0.4240.198,1920x1080,1903x1080,,Meta-Task,29,Menta-first,survey-likert,928,1247516,4773,"{""Q0"":5}",,1,,simpleperceptual,79,confidencerating,0.833333333,2.8,0.972222222,59.19444444,1,,,16
188,1.61E+12,04/12/2020 18:02,1.61E+12,1,04/12/2020 19:02,27169,8,task-yzt9,,8340662,BLIND,2542911,,complete,fgczck,,computer,Desktop or Laptop,Windows 10,Chrome 86.0.4240.198,1920x1080,1903x1080,,Meta-Task,29,Menta-first,doublestim,935,1251583,253,,69,1,,simpleperceptual,80,responsePerceptual,,2.8,,59.19444444,1,,,16
189,1.61E+12,04/12/2020 18:02,1.61E+12,1,04/12/2020 19:02,27169,8,task-yzt9,,8340662,BLIND,2542911,,complete,fgczck,,computer,Desktop or Laptop,Windows 10,Chrome 86.0.4240.198,1920x1080,1903x1080,,Meta-Task,29,Menta-first,survey-likert,937,1252568,474,"{""Q0"":3}",,1,,simpleperceptual,80,confidencerating,0.5,2.8,0.75,59.94444444,1,,,16
190,1.61E+12,04/12/2020 18:02,1.61E+12,1,04/12/2020 19:02,27169,8,task-yzt9,,8340662,BLIND,2542911,,complete,fgczck,,computer,Desktop or Laptop,Windows 10,Chrome 86.0.4240.198,1920x1080,1903x1080,,Meta-Task,29,Menta-first,doublestim,944,1256592,215,,69,,,simpleperceptual,81,responsePerceptual,,2.8,,59.94444444,1,,,16
191,1.61E+12,04/12/2020 18:02,1.61E+12,1,04/12/2020 19:02,27169,8,task-yzt9,,8340662,BLIND,2542911,,complete,fgczck,,computer,Desktop or Laptop,Windows 10,Chrome 86.0.4240.198,1920x1080,1903x1080,,Meta-Task,29,Menta-first,survey-likert,946,1257480,378,"{""Q0"":3}",,,,simpleperceptual,81,confidencerating,0.5,2.8,0.75,60.69444444,1,,,16
192,1.61E+12,04/12/2020 18:02,1.61E+12,1,04/12/2020 19:02,27169,8,task-yzt9,,8340662,BLIND,2542911,,complete,fgczck,,computer,Desktop or Laptop,Windows 10,Chrome 86.0.4240.198,1920x1080,1903x1080,,Meta-Task,29,Menta-first,doublestim,953,1261353,64,,69,1,,simpleperceptual,82,responsePerceptual,,2.8,,60.69444444,1,,,16
193,1.61E+12,04/12/2020 18:02,1.61E+12,1,04/12/2020 19:02,27169,8,task-yzt9,,8340662,BLIND,2542911,,complete,fgczck,,computer,Desktop or Laptop,Windows 10,Chrome 86.0.4240.198,1920x1080,1903x1080,,Meta-Task,29,Menta-first,survey-likert,955,1263257,1394,"{""Q0"":5}",,1,,simpleperceptual,82,confidencerating,0.833333333,2.8,0.972222222,61.66666667,1,,,16
194,1.61E+12,04/12/2020 18:02,1.61E+12,1,04/12/2020 19:02,27169,8,task-yzt9,,8340662,BLIND,2542911,,complete,fgczck,,computer,Desktop or Laptop,Windows 10,Chrome 86.0.4240.198,1920x1080,1903x1080,,Meta-Task,29,Menta-first,doublestim,962,1267294,227,,87,1,,simpleperceptual,83,responsePerceptual,,2.8,,61.66666667,1,,,16
195,1.61E+12,04/12/2020 18:02,1.61E+12,1,04/12/2020 19:02,27169,8,task-yzt9,,8340662,BLIND,2542911,,complete,fgczck,,computer,Desktop or Laptop,Windows 10,Chrome 86.0.4240.198,1920x1080,1903x1080,,Meta-Task,29,Menta-first,survey-likert,964,1268527,723,"{""Q0"":3}",,1,,simpleperceptual,83,confidencerating,0.5,2.8,0.75,62.41666667,1,,,16
196,1.61E+12,04/12/2020 18:02,1.61E+12,1,04/12/2020 19:02,27169,8,task-yzt9,,8340662,BLIND,2542911,,complete,fgczck,,computer,Desktop or Laptop,Windows 10,Chrome 86.0.4240.198,1920x1080,1903x1080,,Meta-Task,29,Menta-first,doublestim,971,1272517,175,,69,1,,simpleperceptual,84,responsePerceptual,,2.8,,62.41666667,1,,,16
197,1.61E+12,04/12/2020 18:02,1.61E+12,1,04/12/2020 19:02,27169,8,task-yzt9,,8340662,BLIND,2542911,,complete,fgczck,,computer,Desktop or Laptop,Windows 10,Chrome 86.0.4240.198,1920x1080,1903x1080,,Meta-Task,29,Menta-first,survey-likert,973,1274185,1158,"{""Q0"":4}",,1,,simpleperceptual,84,confidencerating,0.666666667,2.8,0.888888889,63.30555556,1,,,16
198,1.61E+12,04/12/2020 18:04,1.61E+12,1,04/12/2020 19:04,27169,8,task-yzt9,,8340662,BLIND,2542911,,complete,fgczck,,computer,Desktop or Laptop,Windows 10,Chrome 86.0.4240.198,1920x1080,1903x1080,,Meta-Task,29,Menta-first,doublestim,981,1372203,319,,87,1,,simpleperceptual,85,responsePerceptual,,2.8,,63.30555556,1,,,16
199,1.61E+12,04/12/2020 18:04,1.61E+12,1,04/12/2020 19:04,27169,8,task-yzt9,,8340662,BLIND,2542911,,complete,fgczck,,computer,Desktop or Laptop,Windows 10,Chrome 86.0.4240.198,1920x1080,1903x1080,,Meta-Task,29,Menta-first,survey-likert,983,1375410,2695,"{""Q0"":5}",,1,,simpleperceptual,85,confidencerating,0.833333333,2.8,0.972222222,64.27777778,1,,,16
200,1.61E+12,04/12/2020 18:04,1.61E+12,1,04/12/2020 19:04,27169,8,task-yzt9,,8340662,BLIND,2542911,,complete,fgczck,,computer,Desktop or Laptop,Windows 10,Chrome 86.0.4240.198,1920x1080,1903x1080,,Meta-Task,29,Menta-first,doublestim,990,1379366,149,,69,1,,simpleperceptual,86,responsePerceptual,,2.8,,64.27777778,1,,,16
201,1.61E+12,04/12/2020 18:04,1.61E+12,1,04/12/2020 19:04,27169,8,task-yzt9,,8340662,BLIND,2542911,,complete,fgczck,,computer,Desktop or Laptop,Windows 10,Chrome 86.0.4240.198,1920x1080,1903x1080,,Meta-Task,29,Menta-first,survey-likert,992,1381238,1362,"{""Q0"":5}",,1,,simpleperceptual,86,confidencerating,0.833333333,2.8,0.972222222,65.25,1,,,16
202,1.61E+12,04/12/2020 18:04,1.61E+12,1,04/12/2020 19:04,27169,8,task-yzt9,,8340662,BLIND,2542911,,complete,fgczck,,computer,Desktop or Laptop,Windows 10,Chrome 86.0.4240.198,1920x1080,1903x1080,,Meta-Task,29,Menta-first,doublestim,999,1385329,273,,87,1,,simpleperceptual,87,responsePerceptual,,2.8,,65.25,1,,,16
203,1.61E+12,04/12/2020 18:04,1.61E+12,1,04/12/2020 19:04,27169,8,task-yzt9,,8340662,BLIND,2542911,,complete,fgczck,,computer,Desktop or Laptop,Windows 10,Chrome 86.0.4240.198,1920x1080,1903x1080,,Meta-Task,29,Menta-first,survey-likert,1001,1386991,1153,"{""Q0"":5}",,1,,simpleperceptual,87,confidencerating,0.833333333,2.8,0.972222222,66.22222222,1,,,16
204,1.61E+12,04/12/2020 18:04,1.61E+12,1,04/12/2020 19:04,27169,8,task-yzt9,,8340662,BLIND,2542911,,complete,fgczck,,computer,Desktop or Laptop,Windows 10,Chrome 86.0.4240.198,1920x1080,1903x1080,,Meta-Task,29,Menta-first,doublestim,1008,1391083,280,,69,1,,simpleperceptual,88,responsePerceptual,,2.8,,66.22222222,1,,,16
205,1.61E+12,04/12/2020 18:04,1.61E+12,1,04/12/2020 19:04,27169,8,task-yzt9,,8340662,BLIND,2542911,,complete,fgczck,,computer,Desktop or Laptop,Windows 10,Chrome 86.0.4240.198,1920x1080,1903x1080,,Meta-Task,29,Menta-first,survey-likert,1010,1392396,800,"{""Q0"":3}",,1,,simpleperceptual,88,confidencerating,0.5,2.8,0.75,66.97222222,1,,,16
206,1.61E+12,04/12/2020 18:04,1.61E+12,1,04/12/2020 19:04,27169,8,task-yzt9,,8340662,BLIND,2542911,,complete,fgczck,,computer,Desktop or Laptop,Windows 10,Chrome 86.0.4240.198,1920x1080,1903x1080,,Meta-Task,29,Menta-first,doublestim,1017,1396478,275,,87,,,simpleperceptual,89,responsePerceptual,,2.8,,66.97222222,1,,,16
207,1.61E+12,04/12/2020 18:04,1.61E+12,1,04/12/2020 19:04,27169,8,task-yzt9,,8340662,BLIND,2542911,,complete,fgczck,,computer,Desktop or Laptop,Windows 10,Chrome 86.0.4240.198,1920x1080,1903x1080,,Meta-Task,29,Menta-first,survey-likert,1019,1398778,1790,"{""Q0"":4}",,,,simpleperceptual,89,confidencerating,0.666666667,2.8,0.555555556,67.52777778,1,,,16
208,1.61E+12,04/12/2020 18:04,1.61E+12,1,04/12/2020 19:04,27169,8,task-yzt9,,8340662,BLIND,2542911,,complete,fgczck,,computer,Desktop or Laptop,Windows 10,Chrome 86.0.4240.198,1920x1080,1903x1080,,Meta-Task,29,Menta-first,doublestim,1026,1402853,265,,69,,,simpleperceptual,90,responsePerceptual,,2.8,,67.52777778,1,,,16
209,1.61E+12,04/12/2020 18:04,1.61E+12,1,04/12/2020 19:04,27169,8,task-yzt9,,8340662,BLIND,2542911,,complete,fgczck,,computer,Desktop or Laptop,Windows 10,Chrome 86.0.4240.198,1920x1080,1903x1080,,Meta-Task,29,Menta-first,survey-likert,1028,1405048,1686,"{""Q0"":5}",,,,simpleperceptual,90,confidencerating,0.833333333,2.8,0.305555556,67.83333333,1,,,16
210,1.61E+12,04/12/2020 18:04,1.61E+12,1,04/12/2020 19:04,27169,8,task-yzt9,,8340662,BLIND,2542911,,complete,fgczck,,computer,Desktop or Laptop,Windows 10,Chrome 86.0.4240.198,1920x1080,1903x1080,,Meta-Task,29,Menta-first,doublestim,1035,1409214,343,,69,,,simpleperceptual,91,responsePerceptual,,2.8,,67.83333333,1,,,16
211,1.61E+12,04/12/2020 18:04,1.61E+12,1,04/12/2020 19:04,27169,8,task-yzt9,,8340662,BLIND,2542911,,complete,fgczck,,computer,Desktop or Laptop,Windows 10,Chrome 86.0.4240.198,1920x1080,1903x1080,,Meta-Task,29,Menta-first,survey-likert,1037,1410692,967,"{""Q0"":3}",,,,simpleperceptual,91,confidencerating,0.5,2.8,0.75,68.58333333,1,,,16
212,1.61E+12,04/12/2020 18:04,1.61E+12,1,04/12/2020 19:04,27169,8,task-yzt9,,8340662,BLIND,2542911,,complete,fgczck,,computer,Desktop or Laptop,Windows 10,Chrome 86.0.4240.198,1920x1080,1903x1080,,Meta-Task,29,Menta-first,doublestim,1044,1414612,111,,69,,,simpleperceptual,92,responsePerceptual,,2.8,,68.58333333,1,,,16
213,1.61E+12,04/12/2020 18:04,1.61E+12,1,04/12/2020 19:04,27169,8,task-yzt9,,8340662,BLIND,2542911,,complete,fgczck,,computer,Desktop or Laptop,Windows 10,Chrome 86.0.4240.198,1920x1080,1903x1080,,Meta-Task,29,Menta-first,survey-likert,1046,1416377,1254,"{""Q0"":4}",,,,simpleperceptual,92,confidencerating,0.666666667,2.8,0.555555556,69.13888889,1,,,16
214,1.61E+12,04/12/2020 18:04,1.61E+12,1,04/12/2020 19:04,27169,8,task-yzt9,,8340662,BLIND,2542911,,complete,fgczck,,computer,Desktop or Laptop,Windows 10,Chrome 86.0.4240.198,1920x1080,1903x1080,,Meta-Task,29,Menta-first,doublestim,1053,1420449,262,,87,1,,simpleperceptual,93,responsePerceptual,,2.8,,69.13888889,1,,,16
215,1.61E+12,04/12/2020 18:04,1.61E+12,1,04/12/2020 19:04,27169,8,task-yzt9,,8340662,BLIND,2542911,,complete,fgczck,,computer,Desktop or Laptop,Windows 10,Chrome 86.0.4240.198,1920x1080,1903x1080,,Meta-Task,29,Menta-first,survey-likert,1055,1423085,2126,"{""Q0"":4}",,1,,simpleperceptual,93,confidencerating,0.666666667,2.8,0.888888889,70.02777778,1,,,16
216,1.61E+12,04/12/2020 18:04,1.61E+12,1,04/12/2020 19:04,27169,8,task-yzt9,,8340662,BLIND,2542911,,complete,fgczck,,computer,Desktop or Laptop,Windows 10,Chrome 86.0.4240.198,1920x1080,1903x1080,,Meta-Task,29,Menta-first,doublestim,1062,1426900,7,,69,,,simpleperceptual,94,responsePerceptual,,2.8,,70.02777778,1,,,16
217,1.61E+12,04/12/2020 18:05,1.61E+12,1,04/12/2020 19:05,27169,8,task-yzt9,,8340662,BLIND,2542911,,complete,fgczck,,computer,Desktop or Laptop,Windows 10,Chrome 86.0.4240.198,1920x1080,1903x1080,,Meta-Task,29,Menta-first,survey-likert,1064,1429538,2127,"{""Q0"":5}",,,,simpleperceptual,94,confidencerating,0.833333333,2.8,0.305555556,70.33333333,1,,,16
218,1.61E+12,04/12/2020 18:05,1.61E+12,1,04/12/2020 19:05,27169,8,task-yzt9,,8340662,BLIND,2542911,,complete,fgczck,,computer,Desktop or Laptop,Windows 10,Chrome 86.0.4240.198,1920x1080,1903x1080,,Meta-Task,29,Menta-first,doublestim,1071,1433623,274,,69,1,,simpleperceptual,95,responsePerceptual,,2.8,,70.33333333,1,,,16
219,1.61E+12,04/12/2020 18:05,1.61E+12,1,04/12/2020 19:05,27169,8,task-yzt9,,8340662,BLIND,2542911,,complete,fgczck,,computer,Desktop or Laptop,Windows 10,Chrome 86.0.4240.198,1920x1080,1903x1080,,Meta-Task,29,Menta-first,survey-likert,1073,1435643,1509,"{""Q0"":5}",,1,,simpleperceptual,95,confidencerating,0.833333333,2.8,0.972222222,71.30555556,1,,,16
220,1.61E+12,04/12/2020 18:05,1.61E+12,1,04/12/2020 19:05,27169,8,task-yzt9,,8340662,BLIND,2542911,,complete,fgczck,,computer,Desktop or Laptop,Windows 10,Chrome 86.0.4240.198,1920x1080,1903x1080,,Meta-Task,29,Menta-first,doublestim,1080,1439852,396,,87,,,simpleperceptual,96,responsePerceptual,,2.8,,71.30555556,1,,,16
221,1.61E+12,04/12/2020 18:05,1.61E+12,1,04/12/2020 19:05,27169,8,task-yzt9,,8340662,BLIND,2542911,,complete,fgczck,,computer,Desktop or Laptop,Windows 10,Chrome 86.0.4240.198,1920x1080,1903x1080,,Meta-Task,29,Menta-first,survey-likert,1082,1441657,1294,"{""Q0"":4}",,,,simpleperceptual,96,confidencerating,0.666666667,2.8,0.555555556,71.86111111,1,,,16
222,1.61E+12,04/12/2020 18:05,1.61E+12,1,04/12/2020 19:05,27169,8,task-yzt9,,8340662,BLIND,2542911,,complete,fgczck,,computer,Desktop or Laptop,Windows 10,Chrome 86.0.4240.198,1920x1080,1903x1080,,Meta-Task,29,Menta-first,doublestim,1089,1446353,889,,69,1,,simpleperceptual,97,responsePerceptual,,2.8,,71.86111111,1,,,16
223,1.61E+12,04/12/2020 18:05,1.61E+12,1,04/12/2020 19:05,27169,8,task-yzt9,,8340662,BLIND,2542911,,complete,fgczck,,computer,Desktop or Laptop,Windows 10,Chrome 86.0.4240.198,1920x1080,1903x1080,,Meta-Task,29,Menta-first,survey-likert,1091,1452525,5662,"{""Q0"":5}",,1,,simpleperceptual,97,confidencerating,0.833333333,2.8,0.972222222,72.83333333,1,,,16
224,1.61E+12,04/12/2020 18:05,1.61E+12,1,04/12/2020 19:05,27169,8,task-yzt9,,8340662,BLIND,2542911,,complete,fgczck,,computer,Desktop or Laptop,Windows 10,Chrome 86.0.4240.198,1920x1080,1903x1080,,Meta-Task,29,Menta-first,doublestim,1098,1456366,32,,69,1,,simpleperceptual,98,responsePerceptual,,2.8,,72.83333333,1,,,16
225,1.61E+12,04/12/2020 18:05,1.61E+12,1,04/12/2020 19:05,27169,8,task-yzt9,,8340662,BLIND,2542911,,complete,fgczck,,computer,Desktop or Laptop,Windows 10,Chrome 86.0.4240.198,1920x1080,1903x1080,,Meta-Task,29,Menta-first,survey-likert,1100,1458469,1587,"{""Q0"":4}",,1,,simpleperceptual,98,confidencerating,0.666666667,2.8,0.888888889,73.72222222,1,,,16
226,1.61E+12,04/12/2020 18:05,1.61E+12,1,04/12/2020 19:05,27169,8,task-yzt9,,8340662,BLIND,2542911,,complete,fgczck,,computer,Desktop or Laptop,Windows 10,Chrome 86.0.4240.198,1920x1080,1903x1080,,Meta-Task,29,Menta-first,doublestim,1107,1463641,1351,,69,1,,simpleperceptual,99,responsePerceptual,,2.8,,73.72222222,1,,,16
227,1.61E+12,04/12/2020 18:05,1.61E+12,1,04/12/2020 19:05,27169,8,task-yzt9,,8340662,BLIND,2542911,,complete,fgczck,,computer,Desktop or Laptop,Windows 10,Chrome 86.0.4240.198,1920x1080,1903x1080,,Meta-Task,29,Menta-first,survey-likert,1109,1465596,1444,"{""Q0"":2}",,1,,simpleperceptual,99,confidencerating,0.333333333,2.8,0.555555556,74.27777778,1,,,16
228,1.61E+12,04/12/2020 18:05,1.61E+12,1,04/12/2020 19:05,27169,8,task-yzt9,,8340662,BLIND,2542911,,complete,fgczck,,computer,Desktop or Laptop,Windows 10,Chrome 86.0.4240.198,1920x1080,1903x1080,,Meta-Task,29,Menta-first,doublestim,1116,1469763,342,,69,,,simpleperceptual,100,responsePerceptual,,2.8,,74.27777778,1,,,16
229,1.61E+12,04/12/2020 18:05,1.61E+12,1,04/12/2020 19:05,27169,8,task-yzt9,,8340662,BLIND,2542911,,complete,fgczck,,computer,Desktop or Laptop,Windows 10,Chrome 86.0.4240.198,1920x1080,1903x1080,,Meta-Task,29,Menta-first,survey-likert,1118,1471439,1166,"{""Q0"":1}",,,,simpleperceptual,100,confidencerating,0.166666667,2.8,0.972222222,75.25,1,,,16
230,1.61E+12,04/12/2020 18:05,1.61E+12,1,04/12/2020 19:05,27169,8,task-yzt9,,8340662,BLIND,2542911,,complete,fgczck,,computer,Desktop or Laptop,Windows 10,Chrome 86.0.4240.198,1920x1080,1903x1080,,Meta-Task,29,Menta-first,doublestim,1125,1476040,792,,87,,,simpleperceptual,101,responsePerceptual,,2.8,,75.25,1,,,16
231,1.61E+12,04/12/2020 18:05,1.61E+12,1,04/12/2020 19:05,27169,8,task-yzt9,,8340662,BLIND,2542911,,complete,fgczck,,computer,Desktop or Laptop,Windows 10,Chrome 86.0.4240.198,1920x1080,1903x1080,,Meta-Task,29,Menta-first,survey-likert,1127,1478305,1743,"{""Q0"":4}",,,,simpleperceptual,101,confidencerating,0.666666667,2.8,0.555555556,75.80555556,1,,,16
232,1.61E+12,04/12/2020 18:05,1.61E+12,1,04/12/2020 19:05,27169,8,task-yzt9,,8340662,BLIND,2542911,,complete,fgczck,,computer,Desktop or Laptop,Windows 10,Chrome 86.0.4240.198,1920x1080,1903x1080,,Meta-Task,29,Menta-first,doublestim,1134,1482407,294,,69,,,simpleperceptual,102,responsePerceptual,,2.8,,75.80555556,1,,,16
233,1.61E+12,04/12/2020 18:05,1.61E+12,1,04/12/2020 19:05,27169,8,task-yzt9,,8340662,BLIND,2542911,,complete,fgczck,,computer,Desktop or Laptop,Windows 10,Chrome 86.0.4240.198,1920x1080,1903x1080,,Meta-Task,29,Menta-first,survey-likert,1136,1483790,871,"{""Q0"":3}",,,,simpleperceptual,102,confidencerating,0.5,2.8,0.75,76.55555556,1,,,16
234,1.61E+12,04/12/2020 18:06,1.61E+12,1,04/12/2020 19:05,27169,8,task-yzt9,,8340662,BLIND,2542911,,complete,fgczck,,computer,Desktop or Laptop,Windows 10,Chrome 86.0.4240.198,1920x1080,1903x1080,,Meta-Task,29,Menta-first,doublestim,1143,1487859,261,,69,1,,simpleperceptual,103,responsePerceptual,,2.8,,76.55555556,1,,,16
235,1.61E+12,04/12/2020 18:06,1.61E+12,1,04/12/2020 19:06,27169,8,task-yzt9,,8340662,BLIND,2542911,,complete,fgczck,,computer,Desktop or Laptop,Windows 10,Chrome 86.0.4240.198,1920x1080,1903x1080,,Meta-Task,29,Menta-first,survey-likert,1145,1499260,10892,"{""Q0"":2}",,1,,simpleperceptual,103,confidencerating,0.333333333,2.8,0.555555556,77.11111111,1,,,16
236,1.61E+12,04/12/2020 18:06,1.61E+12,1,04/12/2020 19:06,27169,8,task-yzt9,,8340662,BLIND,2542911,,complete,fgczck,,computer,Desktop or Laptop,Windows 10,Chrome 86.0.4240.198,1920x1080,1903x1080,,Meta-Task,29,Menta-first,doublestim,1152,1503536,459,,87,1,,simpleperceptual,104,responsePerceptual,,2.8,,77.11111111,1,,,16
237,1.61E+12,04/12/2020 18:06,1.61E+12,1,04/12/2020 19:06,27169,8,task-yzt9,,8340662,BLIND,2542911,,complete,fgczck,,computer,Desktop or Laptop,Windows 10,Chrome 86.0.4240.198,1920x1080,1903x1080,,Meta-Task,29,Menta-first,survey-likert,1154,1506825,2779,"{""Q0"":3}",,1,,simpleperceptual,104,confidencerating,0.5,2.8,0.75,77.86111111,1,,,16
238,1.61E+12,04/12/2020 18:06,1.61E+12,1,04/12/2020 19:06,27169,8,task-yzt9,,8340662,BLIND,2542911,,complete,fgczck,,computer,Desktop or Laptop,Windows 10,Chrome 86.0.4240.198,1920x1080,1903x1080,,Meta-Task,29,Menta-first,doublestim,1161,1511066,426,,87,1,,simpleperceptual,105,responsePerceptual,,2.8,,77.86111111,1,,,16
239,1.61E+12,04/12/2020 18:06,1.61E+12,1,04/12/2020 19:06,27169,8,task-yzt9,,8340662,BLIND,2542911,,complete,fgczck,,computer,Desktop or Laptop,Windows 10,Chrome 86.0.4240.198,1920x1080,1903x1080,,Meta-Task,29,Menta-first,survey-likert,1163,1512862,1285,"{""Q0"":4}",,1,,simpleperceptual,105,confidencerating,0.666666667,2.8,0.888888889,78.75,1,,,16
240,1.61E+12,04/12/2020 18:06,1.61E+12,1,04/12/2020 19:06,27169,8,task-yzt9,,8340662,BLIND,2542911,,complete,fgczck,,computer,Desktop or Laptop,Windows 10,Chrome 86.0.4240.198,1920x1080,1903x1080,,Meta-Task,29,Menta-first,doublestim,1170,1516906,235,,69,1,,simpleperceptual,106,responsePerceptual,,2.8,,78.75,1,,,16
241,1.61E+12,04/12/2020 18:06,1.61E+12,1,04/12/2020 19:06,27169,8,task-yzt9,,8340662,BLIND,2542911,,complete,fgczck,,computer,Desktop or Laptop,Windows 10,Chrome 86.0.4240.198,1920x1080,1903x1080,,Meta-Task,29,Menta-first,survey-likert,1172,1518595,1178,"{""Q0"":4}",,1,,simpleperceptual,106,confidencerating,0.666666667,2.8,0.888888889,79.63888889,1,,,16
242,1.61E+12,04/12/2020 18:06,1.61E+12,1,04/12/2020 19:06,27169,8,task-yzt9,,8340662,BLIND,2542911,,complete,fgczck,,computer,Desktop or Laptop,Windows 10,Chrome 86.0.4240.198,1920x1080,1903x1080,,Meta-Task,29,Menta-first,doublestim,1179,1522559,138,,87,1,,simpleperceptual,107,responsePerceptual,,2.8,,79.63888889,1,,,16
243,1.61E+12,04/12/2020 18:06,1.61E+12,1,04/12/2020 19:06,27169,8,task-yzt9,,8340662,BLIND,2542911,,complete,fgczck,,computer,Desktop or Laptop,Windows 10,Chrome 86.0.4240.198,1920x1080,1903x1080,,Meta-Task,29,Menta-first,survey-likert,1181,1524171,1101,"{""Q0"":4}",,1,,simpleperceptual,107,confidencerating,0.666666667,2.8,0.888888889,80.52777778,1,,,16
244,1.61E+12,04/12/2020 18:06,1.61E+12,1,04/12/2020 19:06,27169,8,task-yzt9,,8340662,BLIND,2542911,,complete,fgczck,,computer,Desktop or Laptop,Windows 10,Chrome 86.0.4240.198,1920x1080,1903x1080,,Meta-Task,29,Menta-first,doublestim,1188,1528358,378,,87,1,,simpleperceptual,108,responsePerceptual,,2.8,,80.52777778,1,,,16
245,1.61E+12,04/12/2020 18:06,1.61E+12,1,04/12/2020 19:06,27169,8,task-yzt9,,8340662,BLIND,2542911,,complete,fgczck,,computer,Desktop or Laptop,Windows 10,Chrome 86.0.4240.198,1920x1080,1903x1080,,Meta-Task,29,Menta-first,survey-likert,1190,1529957,1088,"{""Q0"":4}",,1,,simpleperceptual,108,confidencerating,0.666666667,2.8,0.888888889,81.41666667,1,,,16
246,1.61E+12,04/12/2020 18:06,1.61E+12,1,04/12/2020 19:06,27169,8,task-yzt9,,8340662,BLIND,2542911,,complete,fgczck,,computer,Desktop or Laptop,Windows 10,Chrome 86.0.4240.198,1920x1080,1903x1080,,Meta-Task,29,Menta-first,doublestim,1197,1534030,263,,69,,,simpleperceptual,109,responsePerceptual,,2.8,,81.41666667,1,,,16
247,1.61E+12,04/12/2020 18:06,1.61E+12,1,04/12/2020 19:06,27169,8,task-yzt9,,8340662,BLIND,2542911,,complete,fgczck,,computer,Desktop or Laptop,Windows 10,Chrome 86.0.4240.198,1920x1080,1903x1080,,Meta-Task,29,Menta-first,survey-likert,1199,1535830,1289,"{""Q0"":4}",,,,simpleperceptual,109,confidencerating,0.666666667,2.8,0.555555556,81.97222222,1,,,16
248,1.61E+12,04/12/2020 18:06,1.61E+12,1,04/12/2020 19:06,27169,8,task-yzt9,,8340662,BLIND,2542911,,complete,fgczck,,computer,Desktop or Laptop,Windows 10,Chrome 86.0.4240.198,1920x1080,1903x1080,,Meta-Task,29,Menta-first,doublestim,1206,1539902,264,,69,1,,simpleperceptual,110,responsePerceptual,,2.8,,81.97222222,1,,,16
249,1.61E+12,04/12/2020 18:06,1.61E+12,1,04/12/2020 19:06,27169,8,task-yzt9,,8340662,BLIND,2542911,,complete,fgczck,,computer,Desktop or Laptop,Windows 10,Chrome 86.0.4240.198,1920x1080,1903x1080,,Meta-Task,29,Menta-first,survey-likert,1208,1542164,1753,"{""Q0"":5}",,1,,simpleperceptual,110,confidencerating,0.833333333,2.8,0.972222222,82.94444444,1,,,16
250,1.61E+12,04/12/2020 18:06,1.61E+12,1,04/12/2020 19:06,27169,8,task-yzt9,,8340662,BLIND,2542911,,complete,fgczck,,computer,Desktop or Laptop,Windows 10,Chrome 86.0.4240.198,1920x1080,1903x1080,,Meta-Task,29,Menta-first,doublestim,1215,1546235,263,,69,1,,simpleperceptual,111,responsePerceptual,,2.8,,82.94444444,1,,,16
251,1.61E+12,04/12/2020 18:07,1.61E+12,1,04/12/2020 19:06,27169,8,task-yzt9,,8340662,BLIND,2542911,,complete,fgczck,,computer,Desktop or Laptop,Windows 10,Chrome 86.0.4240.198,1920x1080,1903x1080,,Meta-Task,29,Menta-first,survey-likert,1217,1547675,928,"{""Q0"":3}",,1,,simpleperceptual,111,confidencerating,0.5,2.8,0.75,83.69444444,1,,,16
252,1.61E+12,04/12/2020 18:07,1.61E+12,1,04/12/2020 19:07,27169,8,task-yzt9,,8340662,BLIND,2542911,,complete,fgczck,,computer,Desktop or Laptop,Windows 10,Chrome 86.0.4240.198,1920x1080,1903x1080,,Meta-Task,29,Menta-first,doublestim,1224,1551757,274,,69,,,simpleperceptual,112,responsePerceptual,,2.8,,83.69444444,1,,,16
253,1.61E+12,04/12/2020 18:07,1.61E+12,1,04/12/2020 19:07,27169,8,task-yzt9,,8340662,BLIND,2542911,,complete,fgczck,,computer,Desktop or Laptop,Windows 10,Chrome 86.0.4240.198,1920x1080,1903x1080,,Meta-Task,29,Menta-first,survey-likert,1226,1553692,1426,"{""Q0"":5}",,,,simpleperceptual,112,confidencerating,0.833333333,2.8,0.305555556,84,1,,,16
254,1.61E+12,04/12/2020 18:07,1.61E+12,1,04/12/2020 19:07,27169,8,task-yzt9,,8340662,BLIND,2542911,,complete,fgczck,,computer,Desktop or Laptop,Windows 10,Chrome 86.0.4240.198,1920x1080,1903x1080,,Meta-Task,29,Menta-first,doublestim,1233,1558156,656,,87,1,,simpleperceptual,113,responsePerceptual,,2.8,,84,1,,,16
255,1.61E+12,04/12/2020 18:07,1.61E+12,1,04/12/2020 19:07,27169,8,task-yzt9,,8340662,BLIND,2542911,,complete,fgczck,,computer,Desktop or Laptop,Windows 10,Chrome 86.0.4240.198,1920x1080,1903x1080,,Meta-Task,29,Menta-first,survey-likert,1235,1560040,1374,"{""Q0"":4}",,1,,simpleperceptual,113,confidencerating,0.666666667,2.8,0.888888889,84.88888889,1,,,16
256,1.61E+12,04/12/2020 18:07,1.61E+12,1,04/12/2020 19:07,27169,8,task-yzt9,,8340662,BLIND,2542911,,complete,fgczck,,computer,Desktop or Laptop,Windows 10,Chrome 86.0.4240.198,1920x1080,1903x1080,,Meta-Task,29,Menta-first,doublestim,1242,1564108,255,,69,,,simpleperceptual,114,responsePerceptual,,2.8,,84.88888889,1,,,16
257,1.61E+12,04/12/2020 18:07,1.61E+12,1,04/12/2020 19:07,27169,8,task-yzt9,,8340662,BLIND,2542911,,complete,fgczck,,computer,Desktop or Laptop,Windows 10,Chrome 86.0.4240.198,1920x1080,1903x1080,,Meta-Task,29,Menta-first,survey-likert,1244,1566054,1434,"{""Q0"":4}",,,,simpleperceptual,114,confidencerating,0.666666667,2.8,0.555555556,85.44444444,1,,,16
258,1.61E+12,04/12/2020 18:07,1.61E+12,1,04/12/2020 19:07,27169,8,task-yzt9,,8340662,BLIND,2542911,,complete,fgczck,,computer,Desktop or Laptop,Windows 10,Chrome 86.0.4240.198,1920x1080,1903x1080,,Meta-Task,29,Menta-first,doublestim,1251,1570097,233,,69,,,simpleperceptual,115,responsePerceptual,,2.8,,85.44444444,1,,,16
259,1.61E+12,04/12/2020 18:07,1.61E+12,1,04/12/2020 19:07,27169,8,task-yzt9,,8340662,BLIND,2542911,,complete,fgczck,,computer,Desktop or Laptop,Windows 10,Chrome 86.0.4240.198,1920x1080,1903x1080,,Meta-Task,29,Menta-first,survey-likert,1253,1573009,2401,"{""Q0"":4}",,,,simpleperceptual,115,confidencerating,0.666666667,2.8,0.555555556,86,1,,,16
260,1.61E+12,04/12/2020 18:07,1.61E+12,1,04/12/2020 19:07,27169,8,task-yzt9,,8340662,BLIND,2542911,,complete,fgczck,,computer,Desktop or Laptop,Windows 10,Chrome 86.0.4240.198,1920x1080,1903x1080,,Meta-Task,29,Menta-first,doublestim,1260,1577163,335,,69,,,simpleperceptual,116,responsePerceptual,,2.8,,86,1,,,16
261,1.61E+12,04/12/2020 18:07,1.61E+12,1,04/12/2020 19:07,27169,8,task-yzt9,,8340662,BLIND,2542911,,complete,fgczck,,computer,Desktop or Laptop,Windows 10,Chrome 86.0.4240.198,1920x1080,1903x1080,,Meta-Task,29,Menta-first,survey-likert,1262,1579352,1680,"{""Q0"":4}",,,,simpleperceptual,116,confidencerating,0.666666667,2.8,0.555555556,86.55555556,1,,,16
262,1.61E+12,04/12/2020 18:07,1.61E+12,1,04/12/2020 19:07,27169,8,task-yzt9,,8340662,BLIND,2542911,,complete,fgczck,,computer,Desktop or Laptop,Windows 10,Chrome 86.0.4240.198,1920x1080,1903x1080,,Meta-Task,29,Menta-first,doublestim,1269,1583419,227,,69,1,,simpleperceptual,117,responsePerceptual,,2.8,,86.55555556,1,,,16
263,1.61E+12,04/12/2020 18:07,1.61E+12,1,04/12/2020 19:07,27169,8,task-yzt9,,8340662,BLIND,2542911,,complete,fgczck,,computer,Desktop or Laptop,Windows 10,Chrome 86.0.4240.198,1920x1080,1903x1080,,Meta-Task,29,Menta-first,survey-likert,1271,1585306,1374,"{""Q0"":5}",,1,,simpleperceptual,117,confidencerating,0.833333333,2.8,0.972222222,87.52777778,1,,,16
264,1.61E+12,04/12/2020 18:07,1.61E+12,1,04/12/2020 19:07,27169,8,task-yzt9,,8340662,BLIND,2542911,,complete,fgczck,,computer,Desktop or Laptop,Windows 10,Chrome 86.0.4240.198,1920x1080,1903x1080,,Meta-Task,29,Menta-first,doublestim,1278,1589261,132,,69,1,,simpleperceptual,118,responsePerceptual,,2.8,,87.52777778,1,,,16
265,1.61E+12,04/12/2020 18:07,1.61E+12,1,04/12/2020 19:07,27169,8,task-yzt9,,8340662,BLIND,2542911,,complete,fgczck,,computer,Desktop or Laptop,Windows 10,Chrome 86.0.4240.198,1920x1080,1903x1080,,Meta-Task,29,Menta-first,survey-likert,1280,1591023,1253,"{""Q0"":4}",,1,,simpleperceptual,118,confidencerating,0.666666667,2.8,0.888888889,88.41666667,1,,,16
266,1.61E+12,04/12/2020 18:07,1.61E+12,1,04/12/2020 19:07,27169,8,task-yzt9,,8340662,BLIND,2542911,,complete,fgczck,,computer,Desktop or Laptop,Windows 10,Chrome 86.0.4240.198,1920x1080,1903x1080,,Meta-Task,29,Menta-first,doublestim,1287,1595071,228,,69,1,,simpleperceptual,119,responsePerceptual,,2.8,,88.41666667,1,,,16
267,1.61E+12,04/12/2020 18:07,1.61E+12,1,04/12/2020 19:07,27169,8,task-yzt9,,8340662,BLIND,2542911,,complete,fgczck,,computer,Desktop or Laptop,Windows 10,Chrome 86.0.4240.198,1920x1080,1903x1080,,Meta-Task,29,Menta-first,survey-likert,1289,1597128,1547,"{""Q0"":5}",,1,,simpleperceptual,119,confidencerating,0.833333333,2.8,0.972222222,89.38888889,1,,,16
268,1.61E+12,04/12/2020 18:07,1.61E+12,1,04/12/2020 19:07,27169,8,task-yzt9,,8340662,BLIND,2542911,,complete,fgczck,,computer,Desktop or Laptop,Windows 10,Chrome 86.0.4240.198,1920x1080,1903x1080,,Meta-Task,29,Menta-first,doublestim,1296,1601146,212,,69,1,,simpleperceptual,120,responsePerceptual,,2.8,,89.38888889,1,,,16
269,1.61E+12,04/12/2020 18:07,1.61E+12,1,04/12/2020 19:07,27169,8,task-yzt9,,8340662,BLIND,2542911,,complete,fgczck,,computer,Desktop or Laptop,Windows 10,Chrome 86.0.4240.198,1920x1080,1903x1080,,Meta-Task,29,Menta-first,survey-likert,1298,1603597,1941,"{""Q0"":5}",,1,,simpleperceptual,120,confidencerating,0.833333333,2.8,0.972222222,90.36111111,1,,,16
270,1.61E+12,04/12/2020 18:08,1.61E+12,1,04/12/2020 19:07,27169,8,task-yzt9,,8340662,BLIND,2542911,,complete,fgczck,,computer,Desktop or Laptop,Windows 10,Chrome 86.0.4240.198,1920x1080,1903x1080,,Meta-Task,29,Menta-first,doublestim,1305,1607645,231,,69,1,,simpleperceptual,121,responsePerceptual,,2.8,,90.36111111,1,,,16
271,1.61E+12,04/12/2020 18:08,1.61E+12,1,04/12/2020 19:08,27169,8,task-yzt9,,8340662,BLIND,2542911,,complete,fgczck,,computer,Desktop or Laptop,Windows 10,Chrome 86.0.4240.198,1920x1080,1903x1080,,Meta-Task,29,Menta-first,survey-likert,1307,1609214,1057,"{""Q0"":4}",,1,,simpleperceptual,121,confidencerating,0.666666667,2.8,0.888888889,91.25,1,,,16
272,1.61E+12,04/12/2020 18:08,1.61E+12,1,04/12/2020 19:08,27169,8,task-yzt9,,8340662,BLIND,2542911,,complete,fgczck,,computer,Desktop or Laptop,Windows 10,Chrome 86.0.4240.198,1920x1080,1903x1080,,Meta-Task,29,Menta-first,doublestim,1314,1613174,151,,69,1,,simpleperceptual,122,responsePerceptual,,2.8,,91.25,1,,,16
273,1.61E+12,04/12/2020 18:08,1.61E+12,1,04/12/2020 19:08,27169,8,task-yzt9,,8340662,BLIND,2542911,,complete,fgczck,,computer,Desktop or Laptop,Windows 10,Chrome 86.0.4240.198,1920x1080,1903x1080,,Meta-Task,29,Menta-first,survey-likert,1316,1615045,1361,"{""Q0"":5}",,1,,simpleperceptual,122,confidencerating,0.833333333,2.8,0.972222222,92.22222222,1,,,16
274,1.61E+12,04/12/2020 18:08,1.61E+12,1,04/12/2020 19:08,27169,8,task-yzt9,,8340662,BLIND,2542911,,complete,fgczck,,computer,Desktop or Laptop,Windows 10,Chrome 86.0.4240.198,1920x1080,1903x1080,,Meta-Task,29,Menta-first,doublestim,1323,1619042,187,,69,,,simpleperceptual,123,responsePerceptual,,2.8,,92.22222222,1,,,16
275,1.61E+12,04/12/2020 18:08,1.61E+12,1,04/12/2020 19:08,27169,8,task-yzt9,,8340662,BLIND,2542911,,complete,fgczck,,computer,Desktop or Laptop,Windows 10,Chrome 86.0.4240.198,1920x1080,1903x1080,,Meta-Task,29,Menta-first,survey-likert,1325,1620634,1083,"{""Q0"":2}",,,,simpleperceptual,123,confidencerating,0.333333333,2.8,0.888888889,93.11111111,1,,,16
276,1.61E+12,04/12/2020 18:08,1.61E+12,1,04/12/2020 19:08,27169,8,task-yzt9,,8340662,BLIND,2542911,,complete,fgczck,,computer,Desktop or Laptop,Windows 10,Chrome 86.0.4240.198,1920x1080,1903x1080,,Meta-Task,29,Menta-first,doublestim,1332,1624515,72,,69,1,,simpleperceptual,124,responsePerceptual,,2.8,,93.11111111,1,,,16
277,1.61E+12,04/12/2020 18:08,1.61E+12,1,04/12/2020 19:08,27169,8,task-yzt9,,8340662,BLIND,2542911,,complete,fgczck,,computer,Desktop or Laptop,Windows 10,Chrome 86.0.4240.198,1920x1080,1903x1080,,Meta-Task,29,Menta-first,survey-likert,1334,1625774,748,"{""Q0"":3}",,1,,simpleperceptual,124,confidencerating,0.5,2.8,0.75,93.86111111,1,,,16
278,1.61E+12,04/12/2020 18:08,1.61E+12,1,04/12/2020 19:08,27169,8,task-yzt9,,8340662,BLIND,2542911,,complete,fgczck,,computer,Desktop or Laptop,Windows 10,Chrome 86.0.4240.198,1920x1080,1903x1080,,Meta-Task,29,Menta-first,doublestim,1341,1629848,262,,87,1,,simpleperceptual,125,responsePerceptual,,2.8,,93.86111111,1,,,16
279,1.61E+12,04/12/2020 18:08,1.61E+12,1,04/12/2020 19:08,27169,8,task-yzt9,,8340662,BLIND,2542911,,complete,fgczck,,computer,Desktop or Laptop,Windows 10,Chrome 86.0.4240.198,1920x1080,1903x1080,,Meta-Task,29,Menta-first,survey-likert,1343,1630891,532,"{""Q0"":3}",,1,,simpleperceptual,125,confidencerating,0.5,2.8,0.75,94.61111111,1,,,16
280,1.61E+12,04/12/2020 18:08,1.61E+12,1,04/12/2020 19:08,27169,8,task-yzt9,,8340662,BLIND,2542911,,complete,fgczck,,computer,Desktop or Laptop,Windows 10,Chrome 86.0.4240.198,1920x1080,1903x1080,,Meta-Task,29,Menta-first,doublestim,1350,1636851,2138,,69,1,,simpleperceptual,126,responsePerceptual,,2.8,,94.61111111,1,,,16
281,1.61E+12,04/12/2020 18:08,1.61E+12,1,04/12/2020 19:08,27169,8,task-yzt9,,8340662,BLIND,2542911,,complete,fgczck,,computer,Desktop or Laptop,Windows 10,Chrome 86.0.4240.198,1920x1080,1903x1080,,Meta-Task,29,Menta-first,survey-likert,1352,1650062,12700,"{""Q0"":4}",,1,,simpleperceptual,126,confidencerating,0.666666667,2.8,0.888888889,95.5,1,,,16
282,1.61E+12,04/12/2020 18:11,1.61E+12,1,04/12/2020 19:11,27169,8,task-yzt9,,8340662,BLIND,2542911,,complete,fgczck,,computer,Desktop or Laptop,Windows 10,Chrome 86.0.4240.198,1920x1080,1903x1080,,Meta-Task,29,Menta-first,doublestim,1360,1814140,181,,69,,,simpleperceptual,127,responsePerceptual,,2.8,,95.5,1,,,16
283,1.61E+12,04/12/2020 18:11,1.61E+12,1,04/12/2020 19:11,27169,8,task-yzt9,,8340662,BLIND,2542911,,complete,fgczck,,computer,Desktop or Laptop,Windows 10,Chrome 86.0.4240.198,1920x1080,1903x1080,,Meta-Task,29,Menta-first,survey-likert,1362,1821579,6928,"{""Q0"":4}",,,,simpleperceptual,127,confidencerating,0.666666667,2.8,0.555555556,96.05555556,1,,,16
284,1.61E+12,04/12/2020 18:11,1.61E+12,1,04/12/2020 19:11,27169,8,task-yzt9,,8340662,BLIND,2542911,,complete,fgczck,,computer,Desktop or Laptop,Windows 10,Chrome 86.0.4240.198,1920x1080,1903x1080,,Meta-Task,29,Menta-first,doublestim,1369,1825611,202,,69,1,,simpleperceptual,128,responsePerceptual,,2.8,,96.05555556,1,,,16
285,1.61E+12,04/12/2020 18:11,1.61E+12,1,04/12/2020 19:11,27169,8,task-yzt9,,8340662,BLIND,2542911,,complete,fgczck,,computer,Desktop or Laptop,Windows 10,Chrome 86.0.4240.198,1920x1080,1903x1080,,Meta-Task,29,Menta-first,survey-likert,1371,1828361,2239,"{""Q0"":4}",,1,,simpleperceptual,128,confidencerating,0.666666667,2.8,0.888888889,96.94444444,1,,,16
286,1.61E+12,04/12/2020 18:11,1.61E+12,1,04/12/2020 19:11,27169,8,task-yzt9,,8340662,BLIND,2542911,,complete,fgczck,,computer,Desktop or Laptop,Windows 10,Chrome 86.0.4240.198,1920x1080,1903x1080,,Meta-Task,29,Menta-first,doublestim,1378,1832459,283,,69,,,simpleperceptual,129,responsePerceptual,,2.8,,96.94444444,1,,,16
287,1.61E+12,04/12/2020 18:11,1.61E+12,1,04/12/2020 19:11,27169,8,task-yzt9,,8340662,BLIND,2542911,,complete,fgczck,,computer,Desktop or Laptop,Windows 10,Chrome 86.0.4240.198,1920x1080,1903x1080,,Meta-Task,29,Menta-first,survey-likert,1380,1833563,595,"{""Q0"":3}",,,,simpleperceptual,129,confidencerating,0.5,2.8,0.75,97.69444444,1,,,16
288,1.61E+12,04/12/2020 18:11,1.61E+12,1,04/12/2020 19:11,27169,8,task-yzt9,,8340662,BLIND,2542911,,complete,fgczck,,computer,Desktop or Laptop,Windows 10,Chrome 86.0.4240.198,1920x1080,1903x1080,,Meta-Task,29,Menta-first,doublestim,1387,1837873,501,,87,,,simpleperceptual,130,responsePerceptual,,2.8,,97.69444444,1,,,16
289,1.61E+12,04/12/2020 18:11,1.61E+12,1,04/12/2020 19:11,27169,8,task-yzt9,,8340662,BLIND,2542911,,complete,fgczck,,computer,Desktop or Laptop,Windows 10,Chrome 86.0.4240.198,1920x1080,1903x1080,,Meta-Task,29,Menta-first,survey-likert,1389,1839608,1225,"{""Q0"":4}",,,,simpleperceptual,130,confidencerating,0.666666667,2.8,0.555555556,98.25,1,,,16
290,1.61E+12,04/12/2020 18:11,1.61E+12,1,04/12/2020 19:11,27169,8,task-yzt9,,8340662,BLIND,2542911,,complete,fgczck,,computer,Desktop or Laptop,Windows 10,Chrome 86.0.4240.198,1920x1080,1903x1080,,Meta-Task,29,Menta-first,doublestim,1396,1843454,31,,69,1,,simpleperceptual,131,responsePerceptual,,2.8,,98.25,1,,,16
291,1.61E+12,04/12/2020 18:11,1.61E+12,1,04/12/2020 19:11,27169,8,task-yzt9,,8340662,BLIND,2542911,,complete,fgczck,,computer,Desktop or Laptop,Windows 10,Chrome 86.0.4240.198,1920x1080,1903x1080,,Meta-Task,29,Menta-first,survey-likert,1398,1845324,1358,"{""Q0"":4}",,1,,simpleperceptual,131,confidencerating,0.666666667,2.8,0.888888889,99.13888889,1,,,16
292,1.61E+12,04/12/2020 18:12,1.61E+12,1,04/12/2020 19:12,27169,8,task-yzt9,,8340662,BLIND,2542911,,complete,fgczck,,computer,Desktop or Laptop,Windows 10,Chrome 86.0.4240.198,1920x1080,1903x1080,,Meta-Task,29,Menta-first,doublestim,1405,1849388,246,,87,1,,simpleperceptual,132,responsePerceptual,,2.8,,99.13888889,1,,,16
293,1.61E+12,04/12/2020 18:12,1.61E+12,1,04/12/2020 19:12,27169,8,task-yzt9,,8340662,BLIND,2542911,,complete,fgczck,,computer,Desktop or Laptop,Windows 10,Chrome 86.0.4240.198,1920x1080,1903x1080,,Meta-Task,29,Menta-first,survey-likert,1407,1852222,2323,"{""Q0"":4}",,1,,simpleperceptual,132,confidencerating,0.666666667,2.8,0.888888889,100.0277778,1,,,16
294,1.61E+12,04/12/2020 18:12,1.61E+12,1,04/12/2020 19:12,27169,8,task-yzt9,,8340662,BLIND,2542911,,complete,fgczck,,computer,Desktop or Laptop,Windows 10,Chrome 86.0.4240.198,1920x1080,1903x1080,,Meta-Task,29,Menta-first,doublestim,1414,1856254,221,,69,,,simpleperceptual,133,responsePerceptual,,2.8,,100.0277778,1,,,16
295,1.61E+12,04/12/2020 18:12,1.61E+12,1,04/12/2020 19:12,27169,8,task-yzt9,,8340662,BLIND,2542911,,complete,fgczck,,computer,Desktop or Laptop,Windows 10,Chrome 86.0.4240.198,1920x1080,1903x1080,,Meta-Task,29,Menta-first,survey-likert,1416,1858216,1450,"{""Q0"":4}",,,,simpleperceptual,133,confidencerating,0.666666667,2.8,0.555555556,100.5833333,1,,,16
296,1.61E+12,04/12/2020 18:12,1.61E+12,1,04/12/2020 19:12,27169,8,task-yzt9,,8340662,BLIND,2542911,,complete,fgczck,,computer,Desktop or Laptop,Windows 10,Chrome 86.0.4240.198,1920x1080,1903x1080,,Meta-Task,29,Menta-first,doublestim,1423,1862141,118,,87,1,,simpleperceptual,134,responsePerceptual,,2.8,,100.5833333,1,,,16
297,1.61E+12,04/12/2020 18:12,1.61E+12,1,04/12/2020 19:12,27169,8,task-yzt9,,8340662,BLIND,2542911,,complete,fgczck,,computer,Desktop or Laptop,Windows 10,Chrome 86.0.4240.198,1920x1080,1903x1080,,Meta-Task,29,Menta-first,survey-likert,1425,1863789,1137,"{""Q0"":4}",,1,,simpleperceptual,134,confidencerating,0.666666667,2.8,0.888888889,101.4722222,1,,,16
298,1.61E+12,04/12/2020 18:12,1.61E+12,1,04/12/2020 19:12,27169,8,task-yzt9,,8340662,BLIND,2542911,,complete,fgczck,,computer,Desktop or Laptop,Windows 10,Chrome 86.0.4240.198,1920x1080,1903x1080,,Meta-Task,29,Menta-first,doublestim,1432,1867793,197,,69,,,simpleperceptual,135,responsePerceptual,,2.8,,101.4722222,1,,,16
299,1.61E+12,04/12/2020 18:12,1.61E+12,1,04/12/2020 19:12,27169,8,task-yzt9,,8340662,BLIND,2542911,,complete,fgczck,,computer,Desktop or Laptop,Windows 10,Chrome 86.0.4240.198,1920x1080,1903x1080,,Meta-Task,29,Menta-first,survey-likert,1434,1869319,1014,"{""Q0"":4}",,,,simpleperceptual,135,confidencerating,0.666666667,2.8,0.555555556,102.0277778,1,,,16
