Event Index,UTC Timestamp,UTC Date,Local Timestamp,Local Timezone,Local Date,Experiment ID,Experiment Version,Tree Node Key,Repeat Key,Schedule ID,Participant Public ID,Participant Private ID,Participant Starting Group,Participant Status,Participant Completion Code,Participant External Session ID,Participant Device Type,Participant Device,Participant OS,Participant Browser,Participant Monitor Size,Participant Viewport Size,Checkpoint,Task Name,Task Version,randomiser-oh6h,trial_type,trial_index_global,time_elapsed,Reactiontime,responses,key_press,correct,current_trial_difficuly,Task_type,Trial_real_experiment,label,confidence_rating,numDots,quadraticscore,earnings,difficulty_staircase_use,numDots_average,NumDots_use,reversals_staircase
1,1.60743E+12,08/12/2020 11:31,1.60743E+12,0,08/12/2020 11:31,27169,8,task-pf6t,,8418925,BLIND,2563035,,complete,lxlkbl,,computer,Desktop or Laptop,Windows 10,Chrome 87.0.4280.88,2560x1080,2543x1080,,Meta-Task,29,Meta-first,doublestim,9,45170,1544,,69,1,,practice,,responsePerceptual_practice,,4.4,,0,1,,5,0
2,1.60743E+12,08/12/2020 11:31,1.60743E+12,0,08/12/2020 11:31,27169,8,task-pf6t,,8418925,BLIND,2563035,,complete,lxlkbl,,computer,Desktop or Laptop,Windows 10,Chrome 87.0.4280.88,2560x1080,2543x1080,,Meta-Task,29,Meta-first,doublestim,17,49912,770,,69,1,,practice,,responsePerceptual_practice,,4.4,,0,1,,5,0
3,1.60743E+12,08/12/2020 11:31,1.60743E+12,0,08/12/2020 11:31,27169,8,task-pf6t,,8418925,BLIND,2563035,,complete,lxlkbl,,computer,Desktop or Laptop,Windows 10,Chrome 87.0.4280.88,2560x1080,2543x1080,,Meta-Task,29,Meta-first,doublestim,25,54440,570,,87,1,,practice,,responsePerceptual_practice,,4,,0,1,,4,0
4,1.60743E+12,08/12/2020 11:31,1.60743E+12,0,08/12/2020 11:31,27169,8,task-pf6t,,8418925,BLIND,2563035,,complete,lxlkbl,,computer,Desktop or Laptop,Windows 10,Chrome 87.0.4280.88,2560x1080,2543x1080,,Meta-Task,29,Meta-first,doublestim,33,58890,479,,69,1,,practice,,responsePerceptual_practice,,4,,0,1,,4,0
5,1.60743E+12,08/12/2020 11:31,1.60743E+12,0,08/12/2020 11:31,27169,8,task-pf6t,,8418925,BLIND,2563035,,complete,lxlkbl,,computer,Desktop or Laptop,Windows 10,Chrome 87.0.4280.88,2560x1080,2543x1080,,Meta-Task,29,Meta-first,doublestim,41,63504,662,,87,,,practice,,responsePerceptual_practice,,3.6,,0,1,,3.6,0
6,1.60743E+12,08/12/2020 11:31,1.60743E+12,0,08/12/2020 11:31,27169,8,task-pf6t,,8418925,BLIND,2563035,,complete,lxlkbl,,computer,Desktop or Laptop,Windows 10,Chrome 87.0.4280.88,2560x1080,2543x1080,,Meta-Task,29,Meta-first,doublestim,49,68112,641,,87,1,,practice,,responsePerceptual_practice,,4,,0,1,,4,1
7,1.60743E+12,08/12/2020 11:31,1.60743E+12,0,08/12/2020 11:31,27169,8,task-pf6t,,8418925,BLIND,2563035,,complete,lxlkbl,,computer,Desktop or Laptop,Windows 10,Chrome 87.0.4280.88,2560x1080,2543x1080,,Meta-Task,29,Meta-first,doublestim,57,72650,560,,87,1,,practice,,responsePerceptual_practice,,4,,0,1,,4,1
8,1.60743E+12,08/12/2020 11:32,1.60743E+12,0,08/12/2020 11:32,27169,8,task-pf6t,,8418925,BLIND,2563035,,complete,lxlkbl,,computer,Desktop or Laptop,Windows 10,Chrome 87.0.4280.88,2560x1080,2543x1080,,Meta-Task,29,Meta-first,doublestim,65,77040,405,,69,1,,practice,,responsePerceptual_practice,,3.8,,0,1,,3.8,2
9,1.60743E+12,08/12/2020 11:32,1.60743E+12,0,08/12/2020 11:32,27169,8,task-pf6t,,8418925,BLIND,2563035,,complete,lxlkbl,,computer,Desktop or Laptop,Windows 10,Chrome 87.0.4280.88,2560x1080,2543x1080,,Meta-Task,29,Meta-first,doublestim,73,81496,494,,69,1,,practice,,responsePerceptual_practice,,3.8,,0,1,,3.8,2
10,1.60743E+12,08/12/2020 11:32,1.60743E+12,0,08/12/2020 11:32,27169,8,task-pf6t,,8418925,BLIND,2563035,,complete,lxlkbl,,computer,Desktop or Laptop,Windows 10,Chrome 87.0.4280.88,2560x1080,2543x1080,,Meta-Task,29,Meta-first,doublestim,81,85953,484,,69,1,,practice,,responsePerceptual_practice,,3.6,,0,1,,3.6,2
11,1.60743E+12,08/12/2020 11:32,1.60743E+12,0,08/12/2020 11:32,27169,8,task-pf6t,,8418925,BLIND,2563035,,complete,lxlkbl,,computer,Desktop or Laptop,Windows 10,Chrome 87.0.4280.88,2560x1080,2543x1080,,Meta-Task,29,Meta-first,doublestim,89,90464,534,,87,1,,practice,,responsePerceptual_practice,,3.6,,0,1,,3.6,2
12,1.60743E+12,08/12/2020 11:32,1.60743E+12,0,08/12/2020 11:32,27169,8,task-pf6t,,8418925,BLIND,2563035,,complete,lxlkbl,,computer,Desktop or Laptop,Windows 10,Chrome 87.0.4280.88,2560x1080,2543x1080,,Meta-Task,29,Meta-first,doublestim,97,94849,402,,69,1,,practice,,responsePerceptual_practice,,3.5,,0,1,,3.5,2
13,1.60743E+12,08/12/2020 11:32,1.60743E+12,0,08/12/2020 11:32,27169,8,task-pf6t,,8418925,BLIND,2563035,,complete,lxlkbl,,computer,Desktop or Laptop,Windows 10,Chrome 87.0.4280.88,2560x1080,2543x1080,,Meta-Task,29,Meta-first,doublestim,105,99330,514,,87,1,,practice,,responsePerceptual_practice,,3.5,,0,1,,3.5,2
14,1.60743E+12,08/12/2020 11:32,1.60743E+12,0,08/12/2020 11:32,27169,8,task-pf6t,,8418925,BLIND,2563035,,complete,lxlkbl,,computer,Desktop or Laptop,Windows 10,Chrome 87.0.4280.88,2560x1080,2543x1080,,Meta-Task,29,Meta-first,doublestim,113,103848,540,,87,1,,practice,,responsePerceptual_practice,,3.4,,0,1,,3.4,2
15,1.60743E+12,08/12/2020 11:32,1.60743E+12,0,08/12/2020 11:32,27169,8,task-pf6t,,8418925,BLIND,2563035,,complete,lxlkbl,,computer,Desktop or Laptop,Windows 10,Chrome 87.0.4280.88,2560x1080,2543x1080,,Meta-Task,29,Meta-first,doublestim,121,108176,362,,69,1,,practice,,responsePerceptual_practice,,3.4,,0,1,,3.4,2
16,1.60743E+12,08/12/2020 11:32,1.60743E+12,0,08/12/2020 11:32,27169,8,task-pf6t,,8418925,BLIND,2563035,,complete,lxlkbl,,computer,Desktop or Laptop,Windows 10,Chrome 87.0.4280.88,2560x1080,2543x1080,,Meta-Task,29,Meta-first,doublestim,129,112593,446,,87,1,,practice,,responsePerceptual_practice,,3.3,,0,1,,3.3,2
17,1.60743E+12,08/12/2020 11:32,1.60743E+12,0,08/12/2020 11:32,27169,8,task-pf6t,,8418925,BLIND,2563035,,complete,lxlkbl,,computer,Desktop or Laptop,Windows 10,Chrome 87.0.4280.88,2560x1080,2543x1080,,Meta-Task,29,Meta-first,doublestim,137,116984,419,,87,,,practice,,responsePerceptual_practice,,3.3,,0,1,,3.3,2
18,1.60743E+12,08/12/2020 11:32,1.60743E+12,0,08/12/2020 11:32,27169,8,task-pf6t,,8418925,BLIND,2563035,,complete,lxlkbl,,computer,Desktop or Laptop,Windows 10,Chrome 87.0.4280.88,2560x1080,2543x1080,,Meta-Task,29,Meta-first,doublestim,145,121392,447,,87,1,,practice,,responsePerceptual_practice,,3.4,,0,1,,3.4,3
19,1.60743E+12,08/12/2020 11:32,1.60743E+12,0,08/12/2020 11:32,27169,8,task-pf6t,,8418925,BLIND,2563035,,complete,lxlkbl,,computer,Desktop or Laptop,Windows 10,Chrome 87.0.4280.88,2560x1080,2543x1080,,Meta-Task,29,Meta-first,doublestim,153,125923,543,,69,1,,practice,,responsePerceptual_practice,,3.4,,0,1,,3.4,3
20,1.60743E+12,08/12/2020 11:32,1.60743E+12,0,08/12/2020 11:32,27169,8,task-pf6t,,8418925,BLIND,2563035,,complete,lxlkbl,,computer,Desktop or Laptop,Windows 10,Chrome 87.0.4280.88,2560x1080,2543x1080,,Meta-Task,29,Meta-first,doublestim,161,130312,424,,87,1,,practice,,responsePerceptual_practice,,3.3,,0,1,,3.3,4
21,1.60743E+12,08/12/2020 11:32,1.60743E+12,0,08/12/2020 11:32,27169,8,task-pf6t,,8418925,BLIND,2563035,,complete,lxlkbl,,computer,Desktop or Laptop,Windows 10,Chrome 87.0.4280.88,2560x1080,2543x1080,,Meta-Task,29,Meta-first,doublestim,169,134784,502,,87,1,,practice,,responsePerceptual_practice,,3.3,,0,1,,3.3,4
22,1.60743E+12,08/12/2020 11:33,1.60743E+12,0,08/12/2020 11:33,27169,8,task-pf6t,,8418925,BLIND,2563035,,complete,lxlkbl,,computer,Desktop or Laptop,Windows 10,Chrome 87.0.4280.88,2560x1080,2543x1080,,Meta-Task,29,Meta-first,doublestim,177,139201,449,,87,1,,practice,,responsePerceptual_practice,,3.2,,0,1,,3.2,4
23,1.60743E+12,08/12/2020 11:33,1.60743E+12,0,08/12/2020 11:33,27169,8,task-pf6t,,8418925,BLIND,2563035,,complete,lxlkbl,,computer,Desktop or Laptop,Windows 10,Chrome 87.0.4280.88,2560x1080,2543x1080,,Meta-Task,29,Meta-first,doublestim,185,143640,464,,69,1,,practice,,responsePerceptual_practice,,3.2,,0,1,,3.2,4
24,1.60743E+12,08/12/2020 11:33,1.60743E+12,0,08/12/2020 11:33,27169,8,task-pf6t,,8418925,BLIND,2563035,,complete,lxlkbl,,computer,Desktop or Laptop,Windows 10,Chrome 87.0.4280.88,2560x1080,2543x1080,,Meta-Task,29,Meta-first,doublestim,193,148064,462,,87,1,,practice,,responsePerceptual_practice,,3.1,,0,1,,3.1,4
25,1.60743E+12,08/12/2020 11:33,1.60743E+12,0,08/12/2020 11:33,27169,8,task-pf6t,,8418925,BLIND,2563035,,complete,lxlkbl,,computer,Desktop or Laptop,Windows 10,Chrome 87.0.4280.88,2560x1080,2543x1080,,Meta-Task,29,Meta-first,doublestim,201,152497,465,,87,,,practice,,responsePerceptual_practice,,3.1,,0,1,,3.1,4
26,1.60743E+12,08/12/2020 11:33,1.60743E+12,0,08/12/2020 11:33,27169,8,task-pf6t,,8418925,BLIND,2563035,,complete,lxlkbl,,computer,Desktop or Laptop,Windows 10,Chrome 87.0.4280.88,2560x1080,2543x1080,,Meta-Task,29,Meta-first,doublestim,209,156968,514,,69,,,practice,,responsePerceptual_practice,,3.2,,0,1,,3.2,5
27,1.60743E+12,08/12/2020 11:33,1.60743E+12,0,08/12/2020 11:33,27169,8,task-pf6t,,8418925,BLIND,2563035,,complete,lxlkbl,,computer,Desktop or Laptop,Windows 10,Chrome 87.0.4280.88,2560x1080,2543x1080,,Meta-Task,29,Meta-first,,,,,,,,,,,,,,,,,,,
28,1.60743E+12,08/12/2020 11:33,1.60743E+12,0,08/12/2020 11:33,27169,8,task-pf6t,,8418925,BLIND,2563035,,complete,lxlkbl,,computer,Desktop or Laptop,Windows 10,Chrome 87.0.4280.88,2560x1080,2543x1080,,Meta-Task,29,Meta-first,survey-likert,213,187927,11285,"{""Q0"":5,""Q1"":2}",,,,practice,,confidprac,,3.2,,0,1,,,5
29,1.60743E+12,08/12/2020 11:34,1.60743E+12,0,08/12/2020 11:34,27169,8,task-pf6t,,8418925,BLIND,2563035,,complete,lxlkbl,,computer,Desktop or Laptop,Windows 10,Chrome 87.0.4280.88,2560x1080,2543x1080,,Meta-Task,29,Meta-first,survey-likert,215,227895,16086,"{""Q0"":5,""Q1"":2}",,,,practice,,confidprac,,3.2,,0,1,,,5
30,1.60743E+12,08/12/2020 11:34,1.60743E+12,0,08/12/2020 11:34,27169,8,task-pf6t,,8418925,BLIND,2563035,,complete,lxlkbl,,computer,Desktop or Laptop,Windows 10,Chrome 87.0.4280.88,2560x1080,2543x1080,,Meta-Task,29,Meta-first,doublestim,223,242504,1471,,87,1,,simpleperceptual,1,responsePerceptual,,3.3,,0,1,,,5
31,1.60743E+12,08/12/2020 11:34,1.60743E+12,0,08/12/2020 11:34,27169,8,task-pf6t,,8418925,BLIND,2563035,,complete,lxlkbl,,computer,Desktop or Laptop,Windows 10,Chrome 87.0.4280.88,2560x1080,2543x1080,,Meta-Task,29,Meta-first,survey-likert,225,248504,5464,"{""Q0"":6}",,1,,simpleperceptual,1,confidencerating,1,3.3,1,1,1,,,5
32,1.60743E+12,08/12/2020 11:34,1.60743E+12,0,08/12/2020 11:34,27169,8,task-pf6t,,8418925,BLIND,2563035,,complete,lxlkbl,,computer,Desktop or Laptop,Windows 10,Chrome 87.0.4280.88,2560x1080,2543x1080,,Meta-Task,29,Meta-first,doublestim,232,252672,219,,87,1,,simpleperceptual,2,responsePerceptual,,3.3,,1,1,,,5
33,1.60743E+12,08/12/2020 11:35,1.60743E+12,0,08/12/2020 11:35,27169,8,task-pf6t,,8418925,BLIND,2563035,,complete,lxlkbl,,computer,Desktop or Laptop,Windows 10,Chrome 87.0.4280.88,2560x1080,2543x1080,,Meta-Task,29,Meta-first,survey-likert,234,255991,2789,"{""Q0"":5}",,1,,simpleperceptual,2,confidencerating,0.833333333,3.3,0.972222222,1.972222222,1,,,5
34,1.60743E+12,08/12/2020 11:35,1.60743E+12,0,08/12/2020 11:35,27169,8,task-pf6t,,8418925,BLIND,2563035,,complete,lxlkbl,,computer,Desktop or Laptop,Windows 10,Chrome 87.0.4280.88,2560x1080,2543x1080,,Meta-Task,29,Meta-first,doublestim,241,260530,593,,87,1,,simpleperceptual,3,responsePerceptual,,3.2,,1.972222222,1,,,6
35,1.60743E+12,08/12/2020 11:35,1.60743E+12,0,08/12/2020 11:35,27169,8,task-pf6t,,8418925,BLIND,2563035,,complete,lxlkbl,,computer,Desktop or Laptop,Windows 10,Chrome 87.0.4280.88,2560x1080,2543x1080,,Meta-Task,29,Meta-first,survey-likert,243,263599,2540,"{""Q0"":4}",,1,,simpleperceptual,3,confidencerating,0.666666667,3.2,0.888888889,2.861111111,1,,,6
36,1.60743E+12,08/12/2020 11:35,1.60743E+12,0,08/12/2020 11:35,27169,8,task-pf6t,,8418925,BLIND,2563035,,complete,lxlkbl,,computer,Desktop or Laptop,Windows 10,Chrome 87.0.4280.88,2560x1080,2543x1080,,Meta-Task,29,Meta-first,doublestim,250,268264,729,,69,1,,simpleperceptual,4,responsePerceptual,,3.2,,2.861111111,1,,,6
37,1.60743E+12,08/12/2020 11:35,1.60743E+12,0,08/12/2020 11:35,27169,8,task-pf6t,,8418925,BLIND,2563035,,complete,lxlkbl,,computer,Desktop or Laptop,Windows 10,Chrome 87.0.4280.88,2560x1080,2543x1080,,Meta-Task,29,Meta-first,survey-likert,252,272063,3267,"{""Q0"":4}",,1,,simpleperceptual,4,confidencerating,0.666666667,3.2,0.888888889,3.75,1,,,6
38,1.60743E+12,08/12/2020 11:35,1.60743E+12,0,08/12/2020 11:35,27169,8,task-pf6t,,8418925,BLIND,2563035,,complete,lxlkbl,,computer,Desktop or Laptop,Windows 10,Chrome 87.0.4280.88,2560x1080,2543x1080,,Meta-Task,29,Meta-first,doublestim,259,277888,1882,,69,1,,simpleperceptual,5,responsePerceptual,,3.1,,3.75,1,,,6
39,1.60743E+12,08/12/2020 11:35,1.60743E+12,0,08/12/2020 11:35,27169,8,task-pf6t,,8418925,BLIND,2563035,,complete,lxlkbl,,computer,Desktop or Laptop,Windows 10,Chrome 87.0.4280.88,2560x1080,2543x1080,,Meta-Task,29,Meta-first,survey-likert,261,280647,2229,"{""Q0"":4}",,1,,simpleperceptual,5,confidencerating,0.666666667,3.1,0.888888889,4.638888889,1,,,6
40,1.60743E+12,08/12/2020 11:35,1.60743E+12,0,08/12/2020 11:35,27169,8,task-pf6t,,8418925,BLIND,2563035,,complete,lxlkbl,,computer,Desktop or Laptop,Windows 10,Chrome 87.0.4280.88,2560x1080,2543x1080,,Meta-Task,29,Meta-first,doublestim,268,285777,1174,,87,1,,simpleperceptual,6,responsePerceptual,,3.1,,4.638888889,1,,,6
41,1.60743E+12,08/12/2020 11:35,1.60743E+12,0,08/12/2020 11:35,27169,8,task-pf6t,,8418925,BLIND,2563035,,complete,lxlkbl,,computer,Desktop or Laptop,Windows 10,Chrome 87.0.4280.88,2560x1080,2543x1080,,Meta-Task,29,Meta-first,survey-likert,270,288623,2316,"{""Q0"":2}",,1,,simpleperceptual,6,confidencerating,0.333333333,3.1,0.555555556,5.194444444,1,,,6
42,1.60743E+12,08/12/2020 11:35,1.60743E+12,0,08/12/2020 11:35,27169,8,task-pf6t,,8418925,BLIND,2563035,,complete,lxlkbl,,computer,Desktop or Laptop,Windows 10,Chrome 87.0.4280.88,2560x1080,2543x1080,,Meta-Task,29,Meta-first,doublestim,277,293240,673,,87,1,,simpleperceptual,7,responsePerceptual,,3,,5.194444444,1,,,6
43,1.60743E+12,08/12/2020 11:35,1.60743E+12,0,08/12/2020 11:35,27169,8,task-pf6t,,8418925,BLIND,2563035,,complete,lxlkbl,,computer,Desktop or Laptop,Windows 10,Chrome 87.0.4280.88,2560x1080,2543x1080,,Meta-Task,29,Meta-first,survey-likert,279,295655,1880,"{""Q0"":3}",,1,,simpleperceptual,7,confidencerating,0.5,3,0.75,5.944444444,1,,,6
44,1.60743E+12,08/12/2020 11:35,1.60743E+12,0,08/12/2020 11:35,27169,8,task-pf6t,,8418925,BLIND,2563035,,complete,lxlkbl,,computer,Desktop or Laptop,Windows 10,Chrome 87.0.4280.88,2560x1080,2543x1080,,Meta-Task,29,Meta-first,doublestim,286,300265,666,,87,1,,simpleperceptual,8,responsePerceptual,,3,,5.944444444,1,,,6
45,1.60743E+12,08/12/2020 11:35,1.60743E+12,0,08/12/2020 11:35,27169,8,task-pf6t,,8418925,BLIND,2563035,,complete,lxlkbl,,computer,Desktop or Laptop,Windows 10,Chrome 87.0.4280.88,2560x1080,2543x1080,,Meta-Task,29,Meta-first,survey-likert,288,302743,1946,"{""Q0"":3}",,1,,simpleperceptual,8,confidencerating,0.5,3,0.75,6.694444444,1,,,6
46,1.60743E+12,08/12/2020 11:35,1.60743E+12,0,08/12/2020 11:35,27169,8,task-pf6t,,8418925,BLIND,2563035,,complete,lxlkbl,,computer,Desktop or Laptop,Windows 10,Chrome 87.0.4280.88,2560x1080,2543x1080,,Meta-Task,29,Meta-first,doublestim,295,307312,623,,69,1,,simpleperceptual,9,responsePerceptual,,2.9,,6.694444444,1,,,6
47,1.60743E+12,08/12/2020 11:35,1.60743E+12,0,08/12/2020 11:35,27169,8,task-pf6t,,8418925,BLIND,2563035,,complete,lxlkbl,,computer,Desktop or Laptop,Windows 10,Chrome 87.0.4280.88,2560x1080,2543x1080,,Meta-Task,29,Meta-first,survey-likert,297,309823,1980,"{""Q0"":2}",,1,,simpleperceptual,9,confidencerating,0.333333333,2.9,0.555555556,7.25,1,,,6
48,1.60743E+12,08/12/2020 11:35,1.60743E+12,0,08/12/2020 11:35,27169,8,task-pf6t,,8418925,BLIND,2563035,,complete,lxlkbl,,computer,Desktop or Laptop,Windows 10,Chrome 87.0.4280.88,2560x1080,2543x1080,,Meta-Task,29,Meta-first,doublestim,304,315232,1463,,87,,,simpleperceptual,10,responsePerceptual,,2.9,,7.25,1,,,6
49,1.60743E+12,08/12/2020 11:42,1.60743E+12,0,08/12/2020 11:42,27169,8,task-pf6t,,8418925,BLIND,2563035,,complete,lxlkbl,,computer,Desktop or Laptop,Windows 10,Chrome 87.0.4280.88,2560x1080,2543x1080,,Meta-Task,29,Meta-first,survey-likert,306,712455,396694,"{""Q0"":3}",,,,simpleperceptual,10,confidencerating,0.5,2.9,0.75,8,1,,,6
50,1.60743E+12,08/12/2020 11:42,1.60743E+12,0,08/12/2020 11:42,27169,8,task-pf6t,,8418925,BLIND,2563035,,complete,lxlkbl,,computer,Desktop or Laptop,Windows 10,Chrome 87.0.4280.88,2560x1080,2543x1080,,Meta-Task,29,Meta-first,doublestim,313,717534,1123,,69,1,,simpleperceptual,11,responsePerceptual,,3,,8,1,,,7
51,1.60743E+12,08/12/2020 11:42,1.60743E+12,0,08/12/2020 11:42,27169,8,task-pf6t,,8418925,BLIND,2563035,,complete,lxlkbl,,computer,Desktop or Laptop,Windows 10,Chrome 87.0.4280.88,2560x1080,2543x1080,,Meta-Task,29,Meta-first,survey-likert,315,721471,3413,"{""Q0"":5}",,1,,simpleperceptual,11,confidencerating,0.833333333,3,0.972222222,8.972222222,1,,,7
52,1.60743E+12,08/12/2020 11:42,1.60743E+12,0,08/12/2020 11:42,27169,8,task-pf6t,,8418925,BLIND,2563035,,complete,lxlkbl,,computer,Desktop or Laptop,Windows 10,Chrome 87.0.4280.88,2560x1080,2543x1080,,Meta-Task,29,Meta-first,doublestim,322,725777,366,,87,1,,simpleperceptual,12,responsePerceptual,,3,,8.972222222,1,,,7
53,1.60743E+12,08/12/2020 11:42,1.60743E+12,0,08/12/2020 11:42,27169,8,task-pf6t,,8418925,BLIND,2563035,,complete,lxlkbl,,computer,Desktop or Laptop,Windows 10,Chrome 87.0.4280.88,2560x1080,2543x1080,,Meta-Task,29,Meta-first,survey-likert,324,728158,1850,"{""Q0"":5}",,1,,simpleperceptual,12,confidencerating,0.833333333,3,0.972222222,9.944444444,1,,,7
54,1.60743E+12,08/12/2020 11:42,1.60743E+12,0,08/12/2020 11:42,27169,8,task-pf6t,,8418925,BLIND,2563035,,complete,lxlkbl,,computer,Desktop or Laptop,Windows 10,Chrome 87.0.4280.88,2560x1080,2543x1080,,Meta-Task,29,Meta-first,doublestim,331,733799,1688,,87,,,simpleperceptual,13,responsePerceptual,,2.9,,9.944444444,1,,,8
55,1.60743E+12,08/12/2020 11:43,1.60743E+12,0,08/12/2020 11:43,27169,8,task-pf6t,,8418925,BLIND,2563035,,complete,lxlkbl,,computer,Desktop or Laptop,Windows 10,Chrome 87.0.4280.88,2560x1080,2543x1080,,Meta-Task,29,Meta-first,survey-likert,333,736463,2133,"{""Q0"":4}",,,,simpleperceptual,13,confidencerating,0.666666667,2.9,0.555555556,10.5,1,,,8
56,1.60743E+12,08/12/2020 11:43,1.60743E+12,0,08/12/2020 11:43,27169,8,task-pf6t,,8418925,BLIND,2563035,,complete,lxlkbl,,computer,Desktop or Laptop,Windows 10,Chrome 87.0.4280.88,2560x1080,2543x1080,,Meta-Task,29,Meta-first,doublestim,340,741951,1548,,87,1,,simpleperceptual,14,responsePerceptual,,3,,10.5,1,,,9
57,1.60743E+12,08/12/2020 11:43,1.60743E+12,0,08/12/2020 11:43,27169,8,task-pf6t,,8418925,BLIND,2563035,,complete,lxlkbl,,computer,Desktop or Laptop,Windows 10,Chrome 87.0.4280.88,2560x1080,2543x1080,,Meta-Task,29,Meta-first,survey-likert,342,745095,2611,"{""Q0"":4}",,1,,simpleperceptual,14,confidencerating,0.666666667,3,0.888888889,11.38888889,1,,,9
58,1.60743E+12,08/12/2020 11:43,1.60743E+12,0,08/12/2020 11:43,27169,8,task-pf6t,,8418925,BLIND,2563035,,complete,lxlkbl,,computer,Desktop or Laptop,Windows 10,Chrome 87.0.4280.88,2560x1080,2543x1080,,Meta-Task,29,Meta-first,doublestim,349,749737,690,,87,1,,simpleperceptual,15,responsePerceptual,,3,,11.38888889,1,,,9
59,1.60743E+12,08/12/2020 11:43,1.60743E+12,0,08/12/2020 11:43,27169,8,task-pf6t,,8418925,BLIND,2563035,,complete,lxlkbl,,computer,Desktop or Laptop,Windows 10,Chrome 87.0.4280.88,2560x1080,2543x1080,,Meta-Task,29,Meta-first,survey-likert,351,752255,1983,"{""Q0"":4}",,1,,simpleperceptual,15,confidencerating,0.666666667,3,0.888888889,12.27777778,1,,,9
60,1.60743E+12,08/12/2020 11:43,1.60743E+12,0,08/12/2020 11:43,27169,8,task-pf6t,,8418925,BLIND,2563035,,complete,lxlkbl,,computer,Desktop or Laptop,Windows 10,Chrome 87.0.4280.88,2560x1080,2543x1080,,Meta-Task,29,Meta-first,doublestim,358,756831,622,,87,1,,simpleperceptual,16,responsePerceptual,,2.9,,12.27777778,1,,,10
61,1.60743E+12,08/12/2020 11:43,1.60743E+12,0,08/12/2020 11:43,27169,8,task-pf6t,,8418925,BLIND,2563035,,complete,lxlkbl,,computer,Desktop or Laptop,Windows 10,Chrome 87.0.4280.88,2560x1080,2543x1080,,Meta-Task,29,Meta-first,survey-likert,360,759423,2058,"{""Q0"":5}",,1,,simpleperceptual,16,confidencerating,0.833333333,2.9,0.972222222,13.25,1,,,10
62,1.60743E+12,08/12/2020 11:43,1.60743E+12,0,08/12/2020 11:43,27169,8,task-pf6t,,8418925,BLIND,2563035,,complete,lxlkbl,,computer,Desktop or Laptop,Windows 10,Chrome 87.0.4280.88,2560x1080,2543x1080,,Meta-Task,29,Meta-first,doublestim,367,763817,453,,87,,,simpleperceptual,17,responsePerceptual,,2.9,,13.25,1,,,10
63,1.60743E+12,08/12/2020 11:43,1.60743E+12,0,08/12/2020 11:43,27169,8,task-pf6t,,8418925,BLIND,2563035,,complete,lxlkbl,,computer,Desktop or Laptop,Windows 10,Chrome 87.0.4280.88,2560x1080,2543x1080,,Meta-Task,29,Meta-first,survey-likert,369,765983,1635,"{""Q0"":5}",,,,simpleperceptual,17,confidencerating,0.833333333,2.9,0.305555556,13.55555556,1,,,10
64,1.60743E+12,08/12/2020 11:43,1.60743E+12,0,08/12/2020 11:43,27169,8,task-pf6t,,8418925,BLIND,2563035,,complete,lxlkbl,,computer,Desktop or Laptop,Windows 10,Chrome 87.0.4280.88,2560x1080,2543x1080,,Meta-Task,29,Meta-first,doublestim,376,770415,491,,87,1,,simpleperceptual,18,responsePerceptual,,3,,13.55555556,1,,,11
65,1.60743E+12,08/12/2020 11:43,1.60743E+12,0,08/12/2020 11:43,27169,8,task-pf6t,,8418925,BLIND,2563035,,complete,lxlkbl,,computer,Desktop or Laptop,Windows 10,Chrome 87.0.4280.88,2560x1080,2543x1080,,Meta-Task,29,Meta-first,survey-likert,378,772351,1404,"{""Q0"":4}",,1,,simpleperceptual,18,confidencerating,0.666666667,3,0.888888889,14.44444444,1,,,11
66,1.60743E+12,08/12/2020 11:43,1.60743E+12,0,08/12/2020 11:43,27169,8,task-pf6t,,8418925,BLIND,2563035,,complete,lxlkbl,,computer,Desktop or Laptop,Windows 10,Chrome 87.0.4280.88,2560x1080,2543x1080,,Meta-Task,29,Meta-first,doublestim,385,776769,476,,87,1,,simpleperceptual,19,responsePerceptual,,3,,14.44444444,1,,,11
67,1.60743E+12,08/12/2020 11:43,1.60743E+12,0,08/12/2020 11:43,27169,8,task-pf6t,,8418925,BLIND,2563035,,complete,lxlkbl,,computer,Desktop or Laptop,Windows 10,Chrome 87.0.4280.88,2560x1080,2543x1080,,Meta-Task,29,Meta-first,survey-likert,387,778927,1624,"{""Q0"":5}",,1,,simpleperceptual,19,confidencerating,0.833333333,3,0.972222222,15.41666667,1,,,11
68,1.60743E+12,08/12/2020 11:43,1.60743E+12,0,08/12/2020 11:43,27169,8,task-pf6t,,8418925,BLIND,2563035,,complete,lxlkbl,,computer,Desktop or Laptop,Windows 10,Chrome 87.0.4280.88,2560x1080,2543x1080,,Meta-Task,29,Meta-first,doublestim,394,783280,399,,87,,,simpleperceptual,20,responsePerceptual,,2.9,,15.41666667,1,,,12
69,1.60743E+12,08/12/2020 11:43,1.60743E+12,0,08/12/2020 11:43,27169,8,task-pf6t,,8418925,BLIND,2563035,,complete,lxlkbl,,computer,Desktop or Laptop,Windows 10,Chrome 87.0.4280.88,2560x1080,2543x1080,,Meta-Task,29,Meta-first,survey-likert,396,785391,1570,"{""Q0"":5}",,,,simpleperceptual,20,confidencerating,0.833333333,2.9,0.305555556,15.72222222,1,,,12
70,1.60743E+12,08/12/2020 11:43,1.60743E+12,0,08/12/2020 11:43,27169,8,task-pf6t,,8418925,BLIND,2563035,,complete,lxlkbl,,computer,Desktop or Laptop,Windows 10,Chrome 87.0.4280.88,2560x1080,2543x1080,,Meta-Task,29,Meta-first,doublestim,403,790777,1441,,69,1,,simpleperceptual,21,responsePerceptual,,3,,15.72222222,1,,,13
71,1.60743E+12,08/12/2020 11:43,1.60743E+12,0,08/12/2020 11:43,27169,8,task-pf6t,,8418925,BLIND,2563035,,complete,lxlkbl,,computer,Desktop or Laptop,Windows 10,Chrome 87.0.4280.88,2560x1080,2543x1080,,Meta-Task,29,Meta-first,survey-likert,405,793463,2159,"{""Q0"":3}",,1,,simpleperceptual,21,confidencerating,0.5,3,0.75,16.47222222,1,,,13
72,1.60743E+12,08/12/2020 11:44,1.60743E+12,0,08/12/2020 11:44,27169,8,task-pf6t,,8418925,BLIND,2563035,,complete,lxlkbl,,computer,Desktop or Laptop,Windows 10,Chrome 87.0.4280.88,2560x1080,2543x1080,,Meta-Task,29,Meta-first,doublestim,412,797816,415,,69,1,,simpleperceptual,22,responsePerceptual,,3,,16.47222222,1,,,13
73,1.60743E+12,08/12/2020 11:44,1.60743E+12,0,08/12/2020 11:44,27169,8,task-pf6t,,8418925,BLIND,2563035,,complete,lxlkbl,,computer,Desktop or Laptop,Windows 10,Chrome 87.0.4280.88,2560x1080,2543x1080,,Meta-Task,29,Meta-first,survey-likert,414,800423,2077,"{""Q0"":4}",,1,,simpleperceptual,22,confidencerating,0.666666667,3,0.888888889,17.36111111,1,,,13
74,1.60743E+12,08/12/2020 11:44,1.60743E+12,0,08/12/2020 11:44,27169,8,task-pf6t,,8418925,BLIND,2563035,,complete,lxlkbl,,computer,Desktop or Laptop,Windows 10,Chrome 87.0.4280.88,2560x1080,2543x1080,,Meta-Task,29,Meta-first,doublestim,421,804729,349,,87,1,,simpleperceptual,23,responsePerceptual,,2.9,,17.36111111,1,,,14
75,1.60743E+12,08/12/2020 11:44,1.60743E+12,0,08/12/2020 11:44,27169,8,task-pf6t,,8418925,BLIND,2563035,,complete,lxlkbl,,computer,Desktop or Laptop,Windows 10,Chrome 87.0.4280.88,2560x1080,2543x1080,,Meta-Task,29,Meta-first,survey-likert,423,806695,1434,"{""Q0"":5}",,1,,simpleperceptual,23,confidencerating,0.833333333,2.9,0.972222222,18.33333333,1,,,14
76,1.60743E+12,08/12/2020 11:44,1.60743E+12,0,08/12/2020 11:44,27169,8,task-pf6t,,8418925,BLIND,2563035,,complete,lxlkbl,,computer,Desktop or Laptop,Windows 10,Chrome 87.0.4280.88,2560x1080,2543x1080,,Meta-Task,29,Meta-first,doublestim,430,811024,386,,87,1,,simpleperceptual,24,responsePerceptual,,2.9,,18.33333333,1,,,14
77,1.60743E+12,08/12/2020 11:44,1.60743E+12,0,08/12/2020 11:44,27169,8,task-pf6t,,8418925,BLIND,2563035,,complete,lxlkbl,,computer,Desktop or Laptop,Windows 10,Chrome 87.0.4280.88,2560x1080,2543x1080,,Meta-Task,29,Meta-first,survey-likert,432,813207,1648,"{""Q0"":5}",,1,,simpleperceptual,24,confidencerating,0.833333333,2.9,0.972222222,19.30555556,1,,,14
78,1.60743E+12,08/12/2020 11:44,1.60743E+12,0,08/12/2020 11:44,27169,8,task-pf6t,,8418925,BLIND,2563035,,complete,lxlkbl,,computer,Desktop or Laptop,Windows 10,Chrome 87.0.4280.88,2560x1080,2543x1080,,Meta-Task,29,Meta-first,doublestim,439,817577,420,,87,,,simpleperceptual,25,responsePerceptual,,2.8,,19.30555556,1,,,14
79,1.60743E+12,08/12/2020 11:44,1.60743E+12,0,08/12/2020 11:44,27169,8,task-pf6t,,8418925,BLIND,2563035,,complete,lxlkbl,,computer,Desktop or Laptop,Windows 10,Chrome 87.0.4280.88,2560x1080,2543x1080,,Meta-Task,29,Meta-first,survey-likert,441,820503,2394,"{""Q0"":4}",,,,simpleperceptual,25,confidencerating,0.666666667,2.8,0.555555556,19.86111111,1,,,14
80,1.60743E+12,08/12/2020 11:44,1.60743E+12,0,08/12/2020 11:44,27169,8,task-pf6t,,8418925,BLIND,2563035,,complete,lxlkbl,,computer,Desktop or Laptop,Windows 10,Chrome 87.0.4280.88,2560x1080,2543x1080,,Meta-Task,29,Meta-first,doublestim,448,825097,655,,87,,,simpleperceptual,26,responsePerceptual,,2.9,,19.86111111,1,,,15
81,1.60743E+12,08/12/2020 11:44,1.60743E+12,0,08/12/2020 11:44,27169,8,task-pf6t,,8418925,BLIND,2563035,,complete,lxlkbl,,computer,Desktop or Laptop,Windows 10,Chrome 87.0.4280.88,2560x1080,2543x1080,,Meta-Task,29,Meta-first,survey-likert,450,826703,1074,"{""Q0"":3}",,,,simpleperceptual,26,confidencerating,0.5,2.9,0.75,20.61111111,1,,,15
82,1.60743E+12,08/12/2020 11:44,1.60743E+12,0,08/12/2020 11:44,27169,8,task-pf6t,,8418925,BLIND,2563035,,complete,lxlkbl,,computer,Desktop or Laptop,Windows 10,Chrome 87.0.4280.88,2560x1080,2543x1080,,Meta-Task,29,Meta-first,doublestim,457,831395,749,,87,,,simpleperceptual,27,responsePerceptual,,3,,20.61111111,1,,,15
83,1.60743E+12,08/12/2020 11:44,1.60743E+12,0,08/12/2020 11:44,27169,8,task-pf6t,,8418925,BLIND,2563035,,complete,lxlkbl,,computer,Desktop or Laptop,Windows 10,Chrome 87.0.4280.88,2560x1080,2543x1080,,Meta-Task,29,Meta-first,survey-likert,459,832927,1002,"{""Q0"":3}",,,,simpleperceptual,27,confidencerating,0.5,3,0.75,21.36111111,1,,,15
84,1.60743E+12,08/12/2020 11:44,1.60743E+12,0,08/12/2020 11:44,27169,8,task-pf6t,,8418925,BLIND,2563035,,complete,lxlkbl,,computer,Desktop or Laptop,Windows 10,Chrome 87.0.4280.88,2560x1080,2543x1080,,Meta-Task,29,Meta-first,doublestim,466,837256,383,,87,1,,simpleperceptual,28,responsePerceptual,,3.1,,21.36111111,1,,,15
85,1.60743E+12,08/12/2020 11:44,1.60743E+12,0,08/12/2020 11:44,27169,8,task-pf6t,,8418925,BLIND,2563035,,complete,lxlkbl,,computer,Desktop or Laptop,Windows 10,Chrome 87.0.4280.88,2560x1080,2543x1080,,Meta-Task,29,Meta-first,survey-likert,468,840047,2262,"{""Q0"":4}",,1,,simpleperceptual,28,confidencerating,0.666666667,3.1,0.888888889,22.25,1,,,15
86,1.60743E+12,08/12/2020 11:44,1.60743E+12,0,08/12/2020 11:44,27169,8,task-pf6t,,8418925,BLIND,2563035,,complete,lxlkbl,,computer,Desktop or Laptop,Windows 10,Chrome 87.0.4280.88,2560x1080,2543x1080,,Meta-Task,29,Meta-first,doublestim,475,845001,1009,,87,,,simpleperceptual,29,responsePerceptual,,3.1,,22.25,1,,,15
87,1.60743E+12,08/12/2020 11:44,1.60743E+12,0,08/12/2020 11:44,27169,8,task-pf6t,,8418925,BLIND,2563035,,complete,lxlkbl,,computer,Desktop or Laptop,Windows 10,Chrome 87.0.4280.88,2560x1080,2543x1080,,Meta-Task,29,Meta-first,survey-likert,477,846687,1153,"{""Q0"":3}",,,,simpleperceptual,29,confidencerating,0.5,3.1,0.75,23,1,,,15
88,1.60743E+12,08/12/2020 11:44,1.60743E+12,0,08/12/2020 11:44,27169,8,task-pf6t,,8418925,BLIND,2563035,,complete,lxlkbl,,computer,Desktop or Laptop,Windows 10,Chrome 87.0.4280.88,2560x1080,2543x1080,,Meta-Task,29,Meta-first,doublestim,484,851640,1001,,69,1,,simpleperceptual,30,responsePerceptual,,3.2,,23,1,,,15
89,1.60743E+12,08/12/2020 11:44,1.60743E+12,0,08/12/2020 11:44,27169,8,task-pf6t,,8418925,BLIND,2563035,,complete,lxlkbl,,computer,Desktop or Laptop,Windows 10,Chrome 87.0.4280.88,2560x1080,2543x1080,,Meta-Task,29,Meta-first,survey-likert,486,853871,1703,"{""Q0"":2}",,1,,simpleperceptual,30,confidencerating,0.333333333,3.2,0.555555556,23.55555556,1,,,15
90,1.60743E+12,08/12/2020 11:45,1.60743E+12,0,08/12/2020 11:45,27169,8,task-pf6t,,8418925,BLIND,2563035,,complete,lxlkbl,,computer,Desktop or Laptop,Windows 10,Chrome 87.0.4280.88,2560x1080,2543x1080,,Meta-Task,29,Meta-first,doublestim,493,858953,1140,,87,1,,simpleperceptual,31,responsePerceptual,,3.2,,23.55555556,1,,,15
91,1.60743E+12,08/12/2020 11:45,1.60743E+12,0,08/12/2020 11:45,27169,8,task-pf6t,,8418925,BLIND,2563035,,complete,lxlkbl,,computer,Desktop or Laptop,Windows 10,Chrome 87.0.4280.88,2560x1080,2543x1080,,Meta-Task,29,Meta-first,survey-likert,495,862526,3043,"{""Q0"":4}",,1,,simpleperceptual,31,confidencerating,0.666666667,3.2,0.888888889,24.44444444,1,,,15
92,1.60743E+12,08/12/2020 11:45,1.60743E+12,0,08/12/2020 11:45,27169,8,task-pf6t,,8418925,BLIND,2563035,,complete,lxlkbl,,computer,Desktop or Laptop,Windows 10,Chrome 87.0.4280.88,2560x1080,2543x1080,,Meta-Task,29,Meta-first,doublestim,502,867095,618,,87,,,simpleperceptual,32,responsePerceptual,,3.1,,24.44444444,1,,,16
93,1.60743E+12,08/12/2020 11:45,1.60743E+12,0,08/12/2020 11:45,27169,8,task-pf6t,,8418925,BLIND,2563035,,complete,lxlkbl,,computer,Desktop or Laptop,Windows 10,Chrome 87.0.4280.88,2560x1080,2543x1080,,Meta-Task,29,Meta-first,survey-likert,504,870575,2953,"{""Q0"":1}",,,,simpleperceptual,32,confidencerating,0.166666667,3.1,0.972222222,25.41666667,1,,,16
94,1.60743E+12,08/12/2020 11:45,1.60743E+12,0,08/12/2020 11:45,27169,8,task-pf6t,,8418925,BLIND,2563035,,complete,lxlkbl,,computer,Desktop or Laptop,Windows 10,Chrome 87.0.4280.88,2560x1080,2543x1080,,Meta-Task,29,Meta-first,doublestim,511,874920,403,,69,1,,simpleperceptual,33,responsePerceptual,,3.2,,25.41666667,1,,,17
95,1.60743E+12,08/12/2020 11:45,1.60743E+12,0,08/12/2020 11:45,27169,8,task-pf6t,,8418925,BLIND,2563035,,complete,lxlkbl,,computer,Desktop or Laptop,Windows 10,Chrome 87.0.4280.88,2560x1080,2543x1080,,Meta-Task,29,Meta-first,survey-likert,513,876975,1520,"{""Q0"":4}",,1,,simpleperceptual,33,confidencerating,0.666666667,3.2,0.888888889,26.30555556,1,,,17
96,1.60743E+12,08/12/2020 11:45,1.60743E+12,0,08/12/2020 11:45,27169,8,task-pf6t,,8418925,BLIND,2563035,,complete,lxlkbl,,computer,Desktop or Laptop,Windows 10,Chrome 87.0.4280.88,2560x1080,2543x1080,,Meta-Task,29,Meta-first,doublestim,520,881305,377,,87,1,,simpleperceptual,34,responsePerceptual,,3.2,,26.30555556,1,,,17
97,1.60743E+12,08/12/2020 11:45,1.60743E+12,0,08/12/2020 11:45,27169,8,task-pf6t,,8418925,BLIND,2563035,,complete,lxlkbl,,computer,Desktop or Laptop,Windows 10,Chrome 87.0.4280.88,2560x1080,2543x1080,,Meta-Task,29,Meta-first,survey-likert,522,883559,1723,"{""Q0"":4}",,1,,simpleperceptual,34,confidencerating,0.666666667,3.2,0.888888889,27.19444444,1,,,17
98,1.60743E+12,08/12/2020 11:45,1.60743E+12,0,08/12/2020 11:45,27169,8,task-pf6t,,8418925,BLIND,2563035,,complete,lxlkbl,,computer,Desktop or Laptop,Windows 10,Chrome 87.0.4280.88,2560x1080,2543x1080,,Meta-Task,29,Meta-first,doublestim,529,888031,542,,87,,,simpleperceptual,35,responsePerceptual,,3.1,,27.19444444,1,,,18
99,1.60743E+12,08/12/2020 11:45,1.60743E+12,0,08/12/2020 11:45,27169,8,task-pf6t,,8418925,BLIND,2563035,,complete,lxlkbl,,computer,Desktop or Laptop,Windows 10,Chrome 87.0.4280.88,2560x1080,2543x1080,,Meta-Task,29,Meta-first,survey-likert,531,890518,1956,"{""Q0"":1}",,,,simpleperceptual,35,confidencerating,0.166666667,3.1,0.972222222,28.16666667,1,,,18
100,1.60743E+12,08/12/2020 11:45,1.60743E+12,0,08/12/2020 11:45,27169,8,task-pf6t,,8418925,BLIND,2563035,,complete,lxlkbl,,computer,Desktop or Laptop,Windows 10,Chrome 87.0.4280.88,2560x1080,2543x1080,,Meta-Task,29,Meta-first,doublestim,538,894936,472,,87,1,,simpleperceptual,36,responsePerceptual,,3.2,,28.16666667,1,,,19
101,1.60743E+12,08/12/2020 11:45,1.60743E+12,0,08/12/2020 11:45,27169,8,task-pf6t,,8418925,BLIND,2563035,,complete,lxlkbl,,computer,Desktop or Laptop,Windows 10,Chrome 87.0.4280.88,2560x1080,2543x1080,,Meta-Task,29,Meta-first,survey-likert,540,897622,2157,"{""Q0"":5}",,1,,simpleperceptual,36,confidencerating,0.833333333,3.2,0.972222222,29.13888889,1,,,19
102,1.60743E+12,08/12/2020 11:45,1.60743E+12,0,08/12/2020 11:45,27169,8,task-pf6t,,8418925,BLIND,2563035,,complete,lxlkbl,,computer,Desktop or Laptop,Windows 10,Chrome 87.0.4280.88,2560x1080,2543x1080,,Meta-Task,29,Meta-first,doublestim,547,902207,642,,69,1,,simpleperceptual,37,responsePerceptual,,3.2,,29.13888889,1,,,19
103,1.60743E+12,08/12/2020 11:45,1.60743E+12,0,08/12/2020 11:45,27169,8,task-pf6t,,8418925,BLIND,2563035,,complete,lxlkbl,,computer,Desktop or Laptop,Windows 10,Chrome 87.0.4280.88,2560x1080,2543x1080,,Meta-Task,29,Meta-first,survey-likert,549,904086,1349,"{""Q0"":4}",,1,,simpleperceptual,37,confidencerating,0.666666667,3.2,0.888888889,30.02777778,1,,,19
104,1.60743E+12,08/12/2020 11:45,1.60743E+12,0,08/12/2020 11:45,27169,8,task-pf6t,,8418925,BLIND,2563035,,complete,lxlkbl,,computer,Desktop or Laptop,Windows 10,Chrome 87.0.4280.88,2560x1080,2543x1080,,Meta-Task,29,Meta-first,doublestim,556,908344,315,,87,1,,simpleperceptual,38,responsePerceptual,,3.1,,30.02777778,1,,,20
105,1.60743E+12,08/12/2020 11:45,1.60743E+12,0,08/12/2020 11:45,27169,8,task-pf6t,,8418925,BLIND,2563035,,complete,lxlkbl,,computer,Desktop or Laptop,Windows 10,Chrome 87.0.4280.88,2560x1080,2543x1080,,Meta-Task,29,Meta-first,survey-likert,558,909942,1068,"{""Q0"":3}",,1,,simpleperceptual,38,confidencerating,0.5,3.1,0.75,30.77777778,1,,,20
106,1.60743E+12,08/12/2020 11:45,1.60743E+12,0,08/12/2020 11:45,27169,8,task-pf6t,,8418925,BLIND,2563035,,complete,lxlkbl,,computer,Desktop or Laptop,Windows 10,Chrome 87.0.4280.88,2560x1080,2543x1080,,Meta-Task,29,Meta-first,doublestim,565,914239,352,,87,,,simpleperceptual,39,responsePerceptual,,3.1,,30.77777778,1,,,20
107,1.60743E+12,08/12/2020 11:46,1.60743E+12,0,08/12/2020 11:46,27169,8,task-pf6t,,8418925,BLIND,2563035,,complete,lxlkbl,,computer,Desktop or Laptop,Windows 10,Chrome 87.0.4280.88,2560x1080,2543x1080,,Meta-Task,29,Meta-first,survey-likert,567,916294,1523,"{""Q0"":2}",,,,simpleperceptual,39,confidencerating,0.333333333,3.1,0.888888889,31.66666667,1,,,20
108,1.60743E+12,08/12/2020 11:46,1.60743E+12,0,08/12/2020 11:46,27169,8,task-pf6t,,8418925,BLIND,2563035,,complete,lxlkbl,,computer,Desktop or Laptop,Windows 10,Chrome 87.0.4280.88,2560x1080,2543x1080,,Meta-Task,29,Meta-first,doublestim,574,920609,373,,69,1,,simpleperceptual,40,responsePerceptual,,3.2,,31.66666667,1,,,21
109,1.60743E+12,08/12/2020 11:46,1.60743E+12,0,08/12/2020 11:46,27169,8,task-pf6t,,8418925,BLIND,2563035,,complete,lxlkbl,,computer,Desktop or Laptop,Windows 10,Chrome 87.0.4280.88,2560x1080,2543x1080,,Meta-Task,29,Meta-first,survey-likert,576,922726,1588,"{""Q0"":2}",,1,,simpleperceptual,40,confidencerating,0.333333333,3.2,0.555555556,32.22222222,1,,,21
110,1.60743E+12,08/12/2020 11:46,1.60743E+12,0,08/12/2020 11:46,27169,8,task-pf6t,,8418925,BLIND,2563035,,complete,lxlkbl,,computer,Desktop or Laptop,Windows 10,Chrome 87.0.4280.88,2560x1080,2543x1080,,Meta-Task,29,Meta-first,doublestim,583,927487,819,,69,1,,simpleperceptual,41,responsePerceptual,,3.2,,32.22222222,1,,,21
111,1.60743E+12,08/12/2020 11:46,1.60743E+12,0,08/12/2020 11:46,27169,8,task-pf6t,,8418925,BLIND,2563035,,complete,lxlkbl,,computer,Desktop or Laptop,Windows 10,Chrome 87.0.4280.88,2560x1080,2543x1080,,Meta-Task,29,Meta-first,survey-likert,585,929782,1760,"{""Q0"":4}",,1,,simpleperceptual,41,confidencerating,0.666666667,3.2,0.888888889,33.11111111,1,,,21
112,1.60743E+12,08/12/2020 11:46,1.60743E+12,0,08/12/2020 11:46,27169,8,task-pf6t,,8418925,BLIND,2563035,,complete,lxlkbl,,computer,Desktop or Laptop,Windows 10,Chrome 87.0.4280.88,2560x1080,2543x1080,,Meta-Task,29,Meta-first,doublestim,592,934217,477,,69,1,,simpleperceptual,42,responsePerceptual,,3.1,,33.11111111,1,,,22
113,1.60743E+12,08/12/2020 11:46,1.60743E+12,0,08/12/2020 11:46,27169,8,task-pf6t,,8418925,BLIND,2563035,,complete,lxlkbl,,computer,Desktop or Laptop,Windows 10,Chrome 87.0.4280.88,2560x1080,2543x1080,,Meta-Task,29,Meta-first,survey-likert,594,935894,1139,"{""Q0"":3}",,1,,simpleperceptual,42,confidencerating,0.5,3.1,0.75,33.86111111,1,,,22
114,1.60743E+12,08/12/2020 11:48,1.60743E+12,0,08/12/2020 11:48,27169,8,task-pf6t,,8418925,BLIND,2563035,,complete,lxlkbl,,computer,Desktop or Laptop,Windows 10,Chrome 87.0.4280.88,2560x1080,2543x1080,,Meta-Task,29,Meta-first,doublestim,602,1043871,1590,,87,1,,simpleperceptual,43,responsePerceptual,,3.1,,33.86111111,1,,,22
115,1.60743E+12,08/12/2020 11:48,1.60743E+12,0,08/12/2020 11:48,27169,8,task-pf6t,,8418925,BLIND,2563035,,complete,lxlkbl,,computer,Desktop or Laptop,Windows 10,Chrome 87.0.4280.88,2560x1080,2543x1080,,Meta-Task,29,Meta-first,survey-likert,604,1046094,1691,"{""Q0"":5}",,1,,simpleperceptual,43,confidencerating,0.833333333,3.1,0.972222222,34.83333333,1,,,22
116,1.60743E+12,08/12/2020 11:48,1.60743E+12,0,08/12/2020 11:48,27169,8,task-pf6t,,8418925,BLIND,2563035,,complete,lxlkbl,,computer,Desktop or Laptop,Windows 10,Chrome 87.0.4280.88,2560x1080,2543x1080,,Meta-Task,29,Meta-first,doublestim,611,1050664,622,,87,1,,simpleperceptual,44,responsePerceptual,,3.1,,34.83333333,1,,,22
117,1.60743E+12,08/12/2020 11:48,1.60743E+12,0,08/12/2020 11:48,27169,8,task-pf6t,,8418925,BLIND,2563035,,complete,lxlkbl,,computer,Desktop or Laptop,Windows 10,Chrome 87.0.4280.88,2560x1080,2543x1080,,Meta-Task,29,Meta-first,survey-likert,613,1052958,1762,"{""Q0"":5}",,1,,simpleperceptual,44,confidencerating,0.833333333,3.1,0.972222222,35.80555556,1,,,22
118,1.60743E+12,08/12/2020 11:48,1.60743E+12,0,08/12/2020 11:48,27169,8,task-pf6t,,8418925,BLIND,2563035,,complete,lxlkbl,,computer,Desktop or Laptop,Windows 10,Chrome 87.0.4280.88,2560x1080,2543x1080,,Meta-Task,29,Meta-first,doublestim,620,1057495,598,,87,1,,simpleperceptual,45,responsePerceptual,,3.1,,35.80555556,1,,,22
119,1.60743E+12,08/12/2020 11:48,1.60743E+12,0,08/12/2020 11:48,27169,8,task-pf6t,,8418925,BLIND,2563035,,complete,lxlkbl,,computer,Desktop or Laptop,Windows 10,Chrome 87.0.4280.88,2560x1080,2543x1080,,Meta-Task,29,Meta-first,survey-likert,622,1059590,1563,"{""Q0"":5}",,1,,simpleperceptual,45,confidencerating,0.833333333,3.1,0.972222222,36.77777778,1,,,22
120,1.60743E+12,08/12/2020 11:48,1.60743E+12,0,08/12/2020 11:48,27169,8,task-pf6t,,8418925,BLIND,2563035,,complete,lxlkbl,,computer,Desktop or Laptop,Windows 10,Chrome 87.0.4280.88,2560x1080,2543x1080,,Meta-Task,29,Meta-first,doublestim,629,1063929,399,,69,1,,simpleperceptual,46,responsePerceptual,,3.1,,36.77777778,1,,,22
121,1.60743E+12,08/12/2020 11:48,1.60743E+12,0,08/12/2020 11:48,27169,8,task-pf6t,,8418925,BLIND,2563035,,complete,lxlkbl,,computer,Desktop or Laptop,Windows 10,Chrome 87.0.4280.88,2560x1080,2543x1080,,Meta-Task,29,Meta-first,survey-likert,631,1066182,1724,"{""Q0"":5}",,1,,simpleperceptual,46,confidencerating,0.833333333,3.1,0.972222222,37.75,1,,,22
122,1.60743E+12,08/12/2020 11:48,1.60743E+12,0,08/12/2020 11:48,27169,8,task-pf6t,,8418925,BLIND,2563035,,complete,lxlkbl,,computer,Desktop or Laptop,Windows 10,Chrome 87.0.4280.88,2560x1080,2543x1080,,Meta-Task,29,Meta-first,doublestim,638,1070647,521,,69,1,,simpleperceptual,47,responsePerceptual,,3.1,,37.75,1,,,22
123,1.60743E+12,08/12/2020 11:48,1.60743E+12,0,08/12/2020 11:48,27169,8,task-pf6t,,8418925,BLIND,2563035,,complete,lxlkbl,,computer,Desktop or Laptop,Windows 10,Chrome 87.0.4280.88,2560x1080,2543x1080,,Meta-Task,29,Meta-first,survey-likert,640,1072566,1389,"{""Q0"":4}",,1,,simpleperceptual,47,confidencerating,0.666666667,3.1,0.888888889,38.63888889,1,,,22
124,1.60743E+12,08/12/2020 11:48,1.60743E+12,0,08/12/2020 11:48,27169,8,task-pf6t,,8418925,BLIND,2563035,,complete,lxlkbl,,computer,Desktop or Laptop,Windows 10,Chrome 87.0.4280.88,2560x1080,2543x1080,,Meta-Task,29,Meta-first,doublestim,647,1076905,392,,87,1,,simpleperceptual,48,responsePerceptual,,3.1,,38.63888889,1,,,22
125,1.60743E+12,08/12/2020 11:48,1.60743E+12,0,08/12/2020 11:48,27169,8,task-pf6t,,8418925,BLIND,2563035,,complete,lxlkbl,,computer,Desktop or Laptop,Windows 10,Chrome 87.0.4280.88,2560x1080,2543x1080,,Meta-Task,29,Meta-first,survey-likert,649,1078934,1501,"{""Q0"":4}",,1,,simpleperceptual,48,confidencerating,0.666666667,3.1,0.888888889,39.52777778,1,,,22
126,1.60743E+12,08/12/2020 11:48,1.60743E+12,0,08/12/2020 11:48,27169,8,task-pf6t,,8418925,BLIND,2563035,,complete,lxlkbl,,computer,Desktop or Laptop,Windows 10,Chrome 87.0.4280.88,2560x1080,2543x1080,,Meta-Task,29,Meta-first,doublestim,656,1083263,381,,87,1,,simpleperceptual,49,responsePerceptual,,3.1,,39.52777778,1,,,22
127,1.60743E+12,08/12/2020 11:48,1.60743E+12,0,08/12/2020 11:48,27169,8,task-pf6t,,8418925,BLIND,2563035,,complete,lxlkbl,,computer,Desktop or Laptop,Windows 10,Chrome 87.0.4280.88,2560x1080,2543x1080,,Meta-Task,29,Meta-first,survey-likert,658,1085494,1701,"{""Q0"":4}",,1,,simpleperceptual,49,confidencerating,0.666666667,3.1,0.888888889,40.41666667,1,,,22
128,1.60743E+12,08/12/2020 11:48,1.60743E+12,0,08/12/2020 11:48,27169,8,task-pf6t,,8418925,BLIND,2563035,,complete,lxlkbl,,computer,Desktop or Laptop,Windows 10,Chrome 87.0.4280.88,2560x1080,2543x1080,,Meta-Task,29,Meta-first,doublestim,665,1089936,568,,87,1,,simpleperceptual,50,responsePerceptual,,3.1,,40.41666667,1,,,22
129,1.60743E+12,08/12/2020 11:48,1.60743E+12,0,08/12/2020 11:48,27169,8,task-pf6t,,8418925,BLIND,2563035,,complete,lxlkbl,,computer,Desktop or Laptop,Windows 10,Chrome 87.0.4280.88,2560x1080,2543x1080,,Meta-Task,29,Meta-first,survey-likert,667,1092030,1563,"{""Q0"":3}",,1,,simpleperceptual,50,confidencerating,0.5,3.1,0.75,41.16666667,1,,,22
130,1.60743E+12,08/12/2020 11:49,1.60743E+12,0,08/12/2020 11:49,27169,8,task-pf6t,,8418925,BLIND,2563035,,complete,lxlkbl,,computer,Desktop or Laptop,Windows 10,Chrome 87.0.4280.88,2560x1080,2543x1080,,Meta-Task,29,Meta-first,doublestim,674,1096287,326,,69,1,,simpleperceptual,51,responsePerceptual,,3.1,,41.16666667,1,,,22
131,1.60743E+12,08/12/2020 11:49,1.60743E+12,0,08/12/2020 11:49,27169,8,task-pf6t,,8418925,BLIND,2563035,,complete,lxlkbl,,computer,Desktop or Laptop,Windows 10,Chrome 87.0.4280.88,2560x1080,2543x1080,,Meta-Task,29,Meta-first,survey-likert,676,1099422,2599,"{""Q0"":4}",,1,,simpleperceptual,51,confidencerating,0.666666667,3.1,0.888888889,42.05555556,1,,,22
132,1.60743E+12,08/12/2020 11:49,1.60743E+12,0,08/12/2020 11:49,27169,8,task-pf6t,,8418925,BLIND,2563035,,complete,lxlkbl,,computer,Desktop or Laptop,Windows 10,Chrome 87.0.4280.88,2560x1080,2543x1080,,Meta-Task,29,Meta-first,doublestim,683,1104120,754,,87,,,simpleperceptual,52,responsePerceptual,,3.1,,42.05555556,1,,,22
133,1.60743E+12,08/12/2020 11:49,1.60743E+12,0,08/12/2020 11:49,27169,8,task-pf6t,,8418925,BLIND,2563035,,complete,lxlkbl,,computer,Desktop or Laptop,Windows 10,Chrome 87.0.4280.88,2560x1080,2543x1080,,Meta-Task,29,Meta-first,survey-likert,685,1106326,1673,"{""Q0"":2}",,,,simpleperceptual,52,confidencerating,0.333333333,3.1,0.888888889,42.94444444,1,,,22
134,1.60743E+12,08/12/2020 11:49,1.60743E+12,0,08/12/2020 11:49,27169,8,task-pf6t,,8418925,BLIND,2563035,,complete,lxlkbl,,computer,Desktop or Laptop,Windows 10,Chrome 87.0.4280.88,2560x1080,2543x1080,,Meta-Task,29,Meta-first,doublestim,692,1111671,1400,,87,,,simpleperceptual,53,responsePerceptual,,3.1,,42.94444444,1,,,22
135,1.60743E+12,08/12/2020 11:49,1.60743E+12,0,08/12/2020 11:49,27169,8,task-pf6t,,8418925,BLIND,2563035,,complete,lxlkbl,,computer,Desktop or Laptop,Windows 10,Chrome 87.0.4280.88,2560x1080,2543x1080,,Meta-Task,29,Meta-first,survey-likert,694,1114174,1973,"{""Q0"":2}",,,,simpleperceptual,53,confidencerating,0.333333333,3.1,0.888888889,43.83333333,1,,,22
136,1.60743E+12,08/12/2020 11:49,1.60743E+12,0,08/12/2020 11:49,27169,8,task-pf6t,,8418925,BLIND,2563035,,complete,lxlkbl,,computer,Desktop or Laptop,Windows 10,Chrome 87.0.4280.88,2560x1080,2543x1080,,Meta-Task,29,Meta-first,doublestim,701,1118480,363,,87,1,,simpleperceptual,54,responsePerceptual,,3.1,,43.83333333,1,,,22
137,1.60743E+12,08/12/2020 11:49,1.60743E+12,0,08/12/2020 11:49,27169,8,task-pf6t,,8418925,BLIND,2563035,,complete,lxlkbl,,computer,Desktop or Laptop,Windows 10,Chrome 87.0.4280.88,2560x1080,2543x1080,,Meta-Task,29,Meta-first,survey-likert,703,1120758,1755,"{""Q0"":3}",,1,,simpleperceptual,54,confidencerating,0.5,3.1,0.75,44.58333333,1,,,22
138,1.60743E+12,08/12/2020 11:49,1.60743E+12,0,08/12/2020 11:49,27169,8,task-pf6t,,8418925,BLIND,2563035,,complete,lxlkbl,,computer,Desktop or Laptop,Windows 10,Chrome 87.0.4280.88,2560x1080,2543x1080,,Meta-Task,29,Meta-first,doublestim,710,1125119,423,,69,1,,simpleperceptual,55,responsePerceptual,,3.1,,44.58333333,1,,,22
139,1.60743E+12,08/12/2020 11:49,1.60743E+12,0,08/12/2020 11:49,27169,8,task-pf6t,,8418925,BLIND,2563035,,complete,lxlkbl,,computer,Desktop or Laptop,Windows 10,Chrome 87.0.4280.88,2560x1080,2543x1080,,Meta-Task,29,Meta-first,survey-likert,712,1127598,1940,"{""Q0"":2}",,1,,simpleperceptual,55,confidencerating,0.333333333,3.1,0.555555556,45.13888889,1,,,22
140,1.60743E+12,08/12/2020 11:49,1.60743E+12,0,08/12/2020 11:49,27169,8,task-pf6t,,8418925,BLIND,2563035,,complete,lxlkbl,,computer,Desktop or Laptop,Windows 10,Chrome 87.0.4280.88,2560x1080,2543x1080,,Meta-Task,29,Meta-first,doublestim,719,1132184,646,,87,1,,simpleperceptual,56,responsePerceptual,,3.1,,45.13888889,1,,,22
141,1.60743E+12,08/12/2020 11:49,1.60743E+12,0,08/12/2020 11:49,27169,8,task-pf6t,,8418925,BLIND,2563035,,complete,lxlkbl,,computer,Desktop or Laptop,Windows 10,Chrome 87.0.4280.88,2560x1080,2543x1080,,Meta-Task,29,Meta-first,survey-likert,721,1133926,1213,"{""Q0"":3}",,1,,simpleperceptual,56,confidencerating,0.5,3.1,0.75,45.88888889,1,,,22
142,1.60743E+12,08/12/2020 11:49,1.60743E+12,0,08/12/2020 11:49,27169,8,task-pf6t,,8418925,BLIND,2563035,,complete,lxlkbl,,computer,Desktop or Laptop,Windows 10,Chrome 87.0.4280.88,2560x1080,2543x1080,,Meta-Task,29,Meta-first,doublestim,728,1138070,197,,87,1,,simpleperceptual,57,responsePerceptual,,3.1,,45.88888889,1,,,22
143,1.60743E+12,08/12/2020 11:49,1.60743E+12,0,08/12/2020 11:49,27169,8,task-pf6t,,8418925,BLIND,2563035,,complete,lxlkbl,,computer,Desktop or Laptop,Windows 10,Chrome 87.0.4280.88,2560x1080,2543x1080,,Meta-Task,29,Meta-first,survey-likert,730,1140278,1684,"{""Q0"":5}",,1,,simpleperceptual,57,confidencerating,0.833333333,3.1,0.972222222,46.86111111,1,,,22
144,1.60743E+12,08/12/2020 11:49,1.60743E+12,0,08/12/2020 11:49,27169,8,task-pf6t,,8418925,BLIND,2563035,,complete,lxlkbl,,computer,Desktop or Laptop,Windows 10,Chrome 87.0.4280.88,2560x1080,2543x1080,,Meta-Task,29,Meta-first,doublestim,737,1144624,400,,87,1,,simpleperceptual,58,responsePerceptual,,3.1,,46.86111111,1,,,22
145,1.60743E+12,08/12/2020 11:49,1.60743E+12,0,08/12/2020 11:49,27169,8,task-pf6t,,8418925,BLIND,2563035,,complete,lxlkbl,,computer,Desktop or Laptop,Windows 10,Chrome 87.0.4280.88,2560x1080,2543x1080,,Meta-Task,29,Meta-first,survey-likert,739,1147094,1940,"{""Q0"":5}",,1,,simpleperceptual,58,confidencerating,0.833333333,3.1,0.972222222,47.83333333,1,,,22
146,1.60743E+12,08/12/2020 11:49,1.60743E+12,0,08/12/2020 11:49,27169,8,task-pf6t,,8418925,BLIND,2563035,,complete,lxlkbl,,computer,Desktop or Laptop,Windows 10,Chrome 87.0.4280.88,2560x1080,2543x1080,,Meta-Task,29,Meta-first,doublestim,746,1151479,443,,69,1,,simpleperceptual,59,responsePerceptual,,3.1,,47.83333333,1,,,22
147,1.60743E+12,08/12/2020 11:49,1.60743E+12,0,08/12/2020 11:49,27169,8,task-pf6t,,8418925,BLIND,2563035,,complete,lxlkbl,,computer,Desktop or Laptop,Windows 10,Chrome 87.0.4280.88,2560x1080,2543x1080,,Meta-Task,29,Meta-first,survey-likert,748,1153694,1681,"{""Q0"":4}",,1,,simpleperceptual,59,confidencerating,0.666666667,3.1,0.888888889,48.72222222,1,,,22
148,1.60743E+12,08/12/2020 11:50,1.60743E+12,0,08/12/2020 11:50,27169,8,task-pf6t,,8418925,BLIND,2563035,,complete,lxlkbl,,computer,Desktop or Laptop,Windows 10,Chrome 87.0.4280.88,2560x1080,2543x1080,,Meta-Task,29,Meta-first,doublestim,755,1158104,465,,87,1,,simpleperceptual,60,responsePerceptual,,3.1,,48.72222222,1,,,22
149,1.60743E+12,08/12/2020 11:50,1.60743E+12,0,08/12/2020 11:50,27169,8,task-pf6t,,8418925,BLIND,2563035,,complete,lxlkbl,,computer,Desktop or Laptop,Windows 10,Chrome 87.0.4280.88,2560x1080,2543x1080,,Meta-Task,29,Meta-first,survey-likert,757,1160222,1589,"{""Q0"":5}",,1,,simpleperceptual,60,confidencerating,0.833333333,3.1,0.972222222,49.69444444,1,,,22
150,1.60743E+12,08/12/2020 11:50,1.60743E+12,0,08/12/2020 11:50,27169,8,task-pf6t,,8418925,BLIND,2563035,,complete,lxlkbl,,computer,Desktop or Laptop,Windows 10,Chrome 87.0.4280.88,2560x1080,2543x1080,,Meta-Task,29,Meta-first,doublestim,764,1164631,465,,87,1,,simpleperceptual,61,responsePerceptual,,3.1,,49.69444444,1,,,22
151,1.60743E+12,08/12/2020 11:50,1.60743E+12,0,08/12/2020 11:50,27169,8,task-pf6t,,8418925,BLIND,2563035,,complete,lxlkbl,,computer,Desktop or Laptop,Windows 10,Chrome 87.0.4280.88,2560x1080,2543x1080,,Meta-Task,29,Meta-first,survey-likert,766,1166886,1724,"{""Q0"":5}",,1,,simpleperceptual,61,confidencerating,0.833333333,3.1,0.972222222,50.66666667,1,,,22
152,1.60743E+12,08/12/2020 11:50,1.60743E+12,0,08/12/2020 11:50,27169,8,task-pf6t,,8418925,BLIND,2563035,,complete,lxlkbl,,computer,Desktop or Laptop,Windows 10,Chrome 87.0.4280.88,2560x1080,2543x1080,,Meta-Task,29,Meta-first,doublestim,773,1171320,494,,87,,,simpleperceptual,62,responsePerceptual,,3.1,,50.66666667,1,,,22
153,1.60743E+12,08/12/2020 11:50,1.60743E+12,0,08/12/2020 11:50,27169,8,task-pf6t,,8418925,BLIND,2563035,,complete,lxlkbl,,computer,Desktop or Laptop,Windows 10,Chrome 87.0.4280.88,2560x1080,2543x1080,,Meta-Task,29,Meta-first,survey-likert,775,1173558,1706,"{""Q0"":2}",,,,simpleperceptual,62,confidencerating,0.333333333,3.1,0.888888889,51.55555556,1,,,22
154,1.60743E+12,08/12/2020 11:50,1.60743E+12,0,08/12/2020 11:50,27169,8,task-pf6t,,8418925,BLIND,2563035,,complete,lxlkbl,,computer,Desktop or Laptop,Windows 10,Chrome 87.0.4280.88,2560x1080,2543x1080,,Meta-Task,29,Meta-first,doublestim,782,1178063,561,,87,,,simpleperceptual,63,responsePerceptual,,3.1,,51.55555556,1,,,22
155,1.60743E+12,08/12/2020 11:50,1.60743E+12,0,08/12/2020 11:50,27169,8,task-pf6t,,8418925,BLIND,2563035,,complete,lxlkbl,,computer,Desktop or Laptop,Windows 10,Chrome 87.0.4280.88,2560x1080,2543x1080,,Meta-Task,29,Meta-first,survey-likert,784,1180142,1548,"{""Q0"":4}",,,,simpleperceptual,63,confidencerating,0.666666667,3.1,0.555555556,52.11111111,1,,,22
156,1.60743E+12,08/12/2020 11:50,1.60743E+12,0,08/12/2020 11:50,27169,8,task-pf6t,,8418925,BLIND,2563035,,complete,lxlkbl,,computer,Desktop or Laptop,Windows 10,Chrome 87.0.4280.88,2560x1080,2543x1080,,Meta-Task,29,Meta-first,doublestim,791,1184568,482,,69,1,,simpleperceptual,64,responsePerceptual,,3.1,,52.11111111,1,,,22
157,1.60743E+12,08/12/2020 11:50,1.60743E+12,0,08/12/2020 11:50,27169,8,task-pf6t,,8418925,BLIND,2563035,,complete,lxlkbl,,computer,Desktop or Laptop,Windows 10,Chrome 87.0.4280.88,2560x1080,2543x1080,,Meta-Task,29,Meta-first,survey-likert,793,1186399,1301,"{""Q0"":2}",,1,,simpleperceptual,64,confidencerating,0.333333333,3.1,0.555555556,52.66666667,1,,,22
158,1.60743E+12,08/12/2020 11:50,1.60743E+12,0,08/12/2020 11:50,27169,8,task-pf6t,,8418925,BLIND,2563035,,complete,lxlkbl,,computer,Desktop or Laptop,Windows 10,Chrome 87.0.4280.88,2560x1080,2543x1080,,Meta-Task,29,Meta-first,doublestim,800,1190727,381,,87,1,,simpleperceptual,65,responsePerceptual,,3.1,,52.66666667,1,,,22
159,1.60743E+12,08/12/2020 11:50,1.60743E+12,0,08/12/2020 11:50,27169,8,task-pf6t,,8418925,BLIND,2563035,,complete,lxlkbl,,computer,Desktop or Laptop,Windows 10,Chrome 87.0.4280.88,2560x1080,2543x1080,,Meta-Task,29,Meta-first,survey-likert,802,1192790,1534,"{""Q0"":5}",,1,,simpleperceptual,65,confidencerating,0.833333333,3.1,0.972222222,53.63888889,1,,,22
160,1.60743E+12,08/12/2020 11:50,1.60743E+12,0,08/12/2020 11:50,27169,8,task-pf6t,,8418925,BLIND,2563035,,complete,lxlkbl,,computer,Desktop or Laptop,Windows 10,Chrome 87.0.4280.88,2560x1080,2543x1080,,Meta-Task,29,Meta-first,doublestim,809,1197392,657,,87,1,,simpleperceptual,66,responsePerceptual,,3.1,,53.63888889,1,,,22
161,1.60743E+12,08/12/2020 11:50,1.60743E+12,0,08/12/2020 11:50,27169,8,task-pf6t,,8418925,BLIND,2563035,,complete,lxlkbl,,computer,Desktop or Laptop,Windows 10,Chrome 87.0.4280.88,2560x1080,2543x1080,,Meta-Task,29,Meta-first,survey-likert,811,1199766,1845,"{""Q0"":5}",,1,,simpleperceptual,66,confidencerating,0.833333333,3.1,0.972222222,54.61111111,1,,,22
162,1.60743E+12,08/12/2020 11:50,1.60743E+12,0,08/12/2020 11:50,27169,8,task-pf6t,,8418925,BLIND,2563035,,complete,lxlkbl,,computer,Desktop or Laptop,Windows 10,Chrome 87.0.4280.88,2560x1080,2543x1080,,Meta-Task,29,Meta-first,doublestim,818,1204103,390,,69,1,,simpleperceptual,67,responsePerceptual,,3.1,,54.61111111,1,,,22
163,1.60743E+12,08/12/2020 11:50,1.60743E+12,0,08/12/2020 11:50,27169,8,task-pf6t,,8418925,BLIND,2563035,,complete,lxlkbl,,computer,Desktop or Laptop,Windows 10,Chrome 87.0.4280.88,2560x1080,2543x1080,,Meta-Task,29,Meta-first,survey-likert,820,1206470,1834,"{""Q0"":4}",,1,,simpleperceptual,67,confidencerating,0.666666667,3.1,0.888888889,55.5,1,,,22
164,1.60743E+12,08/12/2020 11:50,1.60743E+12,0,08/12/2020 11:50,27169,8,task-pf6t,,8418925,BLIND,2563035,,complete,lxlkbl,,computer,Desktop or Laptop,Windows 10,Chrome 87.0.4280.88,2560x1080,2543x1080,,Meta-Task,29,Meta-first,doublestim,827,1211105,689,,69,1,,simpleperceptual,68,responsePerceptual,,3.1,,55.5,1,,,22
165,1.60743E+12,08/12/2020 11:50,1.60743E+12,0,08/12/2020 11:50,27169,8,task-pf6t,,8418925,BLIND,2563035,,complete,lxlkbl,,computer,Desktop or Laptop,Windows 10,Chrome 87.0.4280.88,2560x1080,2543x1080,,Meta-Task,29,Meta-first,survey-likert,829,1213430,1790,"{""Q0"":2}",,1,,simpleperceptual,68,confidencerating,0.333333333,3.1,0.555555556,56.05555556,1,,,22
166,1.60743E+12,08/12/2020 11:51,1.60743E+12,0,08/12/2020 11:51,27169,8,task-pf6t,,8418925,BLIND,2563035,,complete,lxlkbl,,computer,Desktop or Laptop,Windows 10,Chrome 87.0.4280.88,2560x1080,2543x1080,,Meta-Task,29,Meta-first,doublestim,836,1218079,703,,69,1,,simpleperceptual,69,responsePerceptual,,3.1,,56.05555556,1,,,22
167,1.60743E+12,08/12/2020 11:51,1.60743E+12,0,08/12/2020 11:51,27169,8,task-pf6t,,8418925,BLIND,2563035,,complete,lxlkbl,,computer,Desktop or Laptop,Windows 10,Chrome 87.0.4280.88,2560x1080,2543x1080,,Meta-Task,29,Meta-first,survey-likert,838,1220678,2068,"{""Q0"":3}",,1,,simpleperceptual,69,confidencerating,0.5,3.1,0.75,56.80555556,1,,,22
168,1.60743E+12,08/12/2020 11:51,1.60743E+12,0,08/12/2020 11:51,27169,8,task-pf6t,,8418925,BLIND,2563035,,complete,lxlkbl,,computer,Desktop or Laptop,Windows 10,Chrome 87.0.4280.88,2560x1080,2543x1080,,Meta-Task,29,Meta-first,doublestim,845,1225160,540,,87,1,,simpleperceptual,70,responsePerceptual,,3.1,,56.80555556,1,,,22
169,1.60743E+12,08/12/2020 11:51,1.60743E+12,0,08/12/2020 11:51,27169,8,task-pf6t,,8418925,BLIND,2563035,,complete,lxlkbl,,computer,Desktop or Laptop,Windows 10,Chrome 87.0.4280.88,2560x1080,2543x1080,,Meta-Task,29,Meta-first,survey-likert,847,1226806,1123,"{""Q0"":3}",,1,,simpleperceptual,70,confidencerating,0.5,3.1,0.75,57.55555556,1,,,22
170,1.60743E+12,08/12/2020 11:51,1.60743E+12,0,08/12/2020 11:51,27169,8,task-pf6t,,8418925,BLIND,2563035,,complete,lxlkbl,,computer,Desktop or Laptop,Windows 10,Chrome 87.0.4280.88,2560x1080,2543x1080,,Meta-Task,29,Meta-first,doublestim,854,1231689,947,,69,1,,simpleperceptual,71,responsePerceptual,,3.1,,57.55555556,1,,,22
171,1.60743E+12,08/12/2020 11:51,1.60743E+12,0,08/12/2020 11:51,27169,8,task-pf6t,,8418925,BLIND,2563035,,complete,lxlkbl,,computer,Desktop or Laptop,Windows 10,Chrome 87.0.4280.88,2560x1080,2543x1080,,Meta-Task,29,Meta-first,survey-likert,856,1233478,1261,"{""Q0"":1}",,1,,simpleperceptual,71,confidencerating,0.166666667,3.1,0.305555556,57.86111111,1,,,22
172,1.60743E+12,08/12/2020 11:51,1.60743E+12,0,08/12/2020 11:51,27169,8,task-pf6t,,8418925,BLIND,2563035,,complete,lxlkbl,,computer,Desktop or Laptop,Windows 10,Chrome 87.0.4280.88,2560x1080,2543x1080,,Meta-Task,29,Meta-first,doublestim,863,1237809,388,,69,1,,simpleperceptual,72,responsePerceptual,,3.1,,57.86111111,1,,,22
173,1.60743E+12,08/12/2020 11:51,1.60743E+12,0,08/12/2020 11:51,27169,8,task-pf6t,,8418925,BLIND,2563035,,complete,lxlkbl,,computer,Desktop or Laptop,Windows 10,Chrome 87.0.4280.88,2560x1080,2543x1080,,Meta-Task,29,Meta-first,survey-likert,865,1239782,1444,"{""Q0"":2}",,1,,simpleperceptual,72,confidencerating,0.333333333,3.1,0.555555556,58.41666667,1,,,22
174,1.60743E+12,08/12/2020 11:51,1.60743E+12,0,08/12/2020 11:51,27169,8,task-pf6t,,8418925,BLIND,2563035,,complete,lxlkbl,,computer,Desktop or Laptop,Windows 10,Chrome 87.0.4280.88,2560x1080,2543x1080,,Meta-Task,29,Meta-first,doublestim,872,1244103,396,,87,1,,simpleperceptual,73,responsePerceptual,,3.1,,58.41666667,1,,,22
175,1.60743E+12,08/12/2020 11:51,1.60743E+12,0,08/12/2020 11:51,27169,8,task-pf6t,,8418925,BLIND,2563035,,complete,lxlkbl,,computer,Desktop or Laptop,Windows 10,Chrome 87.0.4280.88,2560x1080,2543x1080,,Meta-Task,29,Meta-first,survey-likert,874,1246630,1998,"{""Q0"":4}",,1,,simpleperceptual,73,confidencerating,0.666666667,3.1,0.888888889,59.30555556,1,,,22
176,1.60743E+12,08/12/2020 11:51,1.60743E+12,0,08/12/2020 11:51,27169,8,task-pf6t,,8418925,BLIND,2563035,,complete,lxlkbl,,computer,Desktop or Laptop,Windows 10,Chrome 87.0.4280.88,2560x1080,2543x1080,,Meta-Task,29,Meta-first,doublestim,881,1251161,582,,87,,,simpleperceptual,74,responsePerceptual,,3.1,,59.30555556,1,,,22
177,1.60743E+12,08/12/2020 11:51,1.60743E+12,0,08/12/2020 11:51,27169,8,task-pf6t,,8418925,BLIND,2563035,,complete,lxlkbl,,computer,Desktop or Laptop,Windows 10,Chrome 87.0.4280.88,2560x1080,2543x1080,,Meta-Task,29,Meta-first,survey-likert,883,1252862,1167,"{""Q0"":3}",,,,simpleperceptual,74,confidencerating,0.5,3.1,0.75,60.05555556,1,,,22
178,1.60743E+12,08/12/2020 11:51,1.60743E+12,0,08/12/2020 11:51,27169,8,task-pf6t,,8418925,BLIND,2563035,,complete,lxlkbl,,computer,Desktop or Laptop,Windows 10,Chrome 87.0.4280.88,2560x1080,2543x1080,,Meta-Task,29,Meta-first,doublestim,890,1257167,359,,69,1,,simpleperceptual,75,responsePerceptual,,3.1,,60.05555556,1,,,22
179,1.60743E+12,08/12/2020 11:51,1.60743E+12,0,08/12/2020 11:51,27169,8,task-pf6t,,8418925,BLIND,2563035,,complete,lxlkbl,,computer,Desktop or Laptop,Windows 10,Chrome 87.0.4280.88,2560x1080,2543x1080,,Meta-Task,29,Meta-first,survey-likert,892,1258798,1102,"{""Q0"":3}",,1,,simpleperceptual,75,confidencerating,0.5,3.1,0.75,60.80555556,1,,,22
180,1.60743E+12,08/12/2020 11:51,1.60743E+12,0,08/12/2020 11:51,27169,8,task-pf6t,,8418925,BLIND,2563035,,complete,lxlkbl,,computer,Desktop or Laptop,Windows 10,Chrome 87.0.4280.88,2560x1080,2543x1080,,Meta-Task,29,Meta-first,doublestim,899,1263185,445,,87,1,,simpleperceptual,76,responsePerceptual,,3.1,,60.80555556,1,,,22
181,1.60743E+12,08/12/2020 11:51,1.60743E+12,0,08/12/2020 11:51,27169,8,task-pf6t,,8418925,BLIND,2563035,,complete,lxlkbl,,computer,Desktop or Laptop,Windows 10,Chrome 87.0.4280.88,2560x1080,2543x1080,,Meta-Task,29,Meta-first,survey-likert,901,1265158,1442,"{""Q0"":4}",,1,,simpleperceptual,76,confidencerating,0.666666667,3.1,0.888888889,61.69444444,1,,,22
182,1.60743E+12,08/12/2020 11:51,1.60743E+12,0,08/12/2020 11:51,27169,8,task-pf6t,,8418925,BLIND,2563035,,complete,lxlkbl,,computer,Desktop or Laptop,Windows 10,Chrome 87.0.4280.88,2560x1080,2543x1080,,Meta-Task,29,Meta-first,doublestim,908,1269511,404,,87,,,simpleperceptual,77,responsePerceptual,,3.1,,61.69444444,1,,,22
183,1.60743E+12,08/12/2020 11:51,1.60743E+12,0,08/12/2020 11:51,27169,8,task-pf6t,,8418925,BLIND,2563035,,complete,lxlkbl,,computer,Desktop or Laptop,Windows 10,Chrome 87.0.4280.88,2560x1080,2543x1080,,Meta-Task,29,Meta-first,survey-likert,910,1271598,1553,"{""Q0"":2}",,,,simpleperceptual,77,confidencerating,0.333333333,3.1,0.888888889,62.58333333,1,,,22
184,1.60743E+12,08/12/2020 11:51,1.60743E+12,0,08/12/2020 11:52,27169,8,task-pf6t,,8418925,BLIND,2563035,,complete,lxlkbl,,computer,Desktop or Laptop,Windows 10,Chrome 87.0.4280.88,2560x1080,2543x1080,,Meta-Task,29,Meta-first,doublestim,917,1275920,399,,87,1,,simpleperceptual,78,responsePerceptual,,3.1,,62.58333333,1,,,22
185,1.60743E+12,08/12/2020 11:52,1.60743E+12,0,08/12/2020 11:52,27169,8,task-pf6t,,8418925,BLIND,2563035,,complete,lxlkbl,,computer,Desktop or Laptop,Windows 10,Chrome 87.0.4280.88,2560x1080,2543x1080,,Meta-Task,29,Meta-first,survey-likert,919,1277430,979,"{""Q0"":3}",,1,,simpleperceptual,78,confidencerating,0.5,3.1,0.75,63.33333333,1,,,22
186,1.60743E+12,08/12/2020 11:52,1.60743E+12,0,08/12/2020 11:52,27169,8,task-pf6t,,8418925,BLIND,2563035,,complete,lxlkbl,,computer,Desktop or Laptop,Windows 10,Chrome 87.0.4280.88,2560x1080,2543x1080,,Meta-Task,29,Meta-first,doublestim,926,1281871,502,,69,1,,simpleperceptual,79,responsePerceptual,,3.1,,63.33333333,1,,,22
187,1.60743E+12,08/12/2020 11:52,1.60743E+12,0,08/12/2020 11:52,27169,8,task-pf6t,,8418925,BLIND,2563035,,complete,lxlkbl,,computer,Desktop or Laptop,Windows 10,Chrome 87.0.4280.88,2560x1080,2543x1080,,Meta-Task,29,Meta-first,survey-likert,928,1283822,1421,"{""Q0"":4}",,1,,simpleperceptual,79,confidencerating,0.666666667,3.1,0.888888889,64.22222222,1,,,22
188,1.60743E+12,08/12/2020 11:52,1.60743E+12,0,08/12/2020 11:52,27169,8,task-pf6t,,8418925,BLIND,2563035,,complete,lxlkbl,,computer,Desktop or Laptop,Windows 10,Chrome 87.0.4280.88,2560x1080,2543x1080,,Meta-Task,29,Meta-first,doublestim,935,1288761,1003,,87,1,,simpleperceptual,80,responsePerceptual,,3.1,,64.22222222,1,,,22
189,1.60743E+12,08/12/2020 11:52,1.60743E+12,0,08/12/2020 11:52,27169,8,task-pf6t,,8418925,BLIND,2563035,,complete,lxlkbl,,computer,Desktop or Laptop,Windows 10,Chrome 87.0.4280.88,2560x1080,2543x1080,,Meta-Task,29,Meta-first,survey-likert,937,1293198,3901,"{""Q0"":3}",,1,,simpleperceptual,80,confidencerating,0.5,3.1,0.75,64.97222222,1,,,22
190,1.60743E+12,08/12/2020 11:52,1.60743E+12,0,08/12/2020 11:52,27169,8,task-pf6t,,8418925,BLIND,2563035,,complete,lxlkbl,,computer,Desktop or Laptop,Windows 10,Chrome 87.0.4280.88,2560x1080,2543x1080,,Meta-Task,29,Meta-first,doublestim,944,1297655,514,,87,,,simpleperceptual,81,responsePerceptual,,3.1,,64.97222222,1,,,22
191,1.60743E+12,08/12/2020 11:52,1.60743E+12,0,08/12/2020 11:52,27169,8,task-pf6t,,8418925,BLIND,2563035,,complete,lxlkbl,,computer,Desktop or Laptop,Windows 10,Chrome 87.0.4280.88,2560x1080,2543x1080,,Meta-Task,29,Meta-first,survey-likert,946,1299454,1270,"{""Q0"":2}",,,,simpleperceptual,81,confidencerating,0.333333333,3.1,0.888888889,65.86111111,1,,,22
192,1.60743E+12,08/12/2020 11:52,1.60743E+12,0,08/12/2020 11:52,27169,8,task-pf6t,,8418925,BLIND,2563035,,complete,lxlkbl,,computer,Desktop or Laptop,Windows 10,Chrome 87.0.4280.88,2560x1080,2543x1080,,Meta-Task,29,Meta-first,doublestim,953,1304071,670,,87,,,simpleperceptual,82,responsePerceptual,,3.1,,65.86111111,1,,,22
193,1.60743E+12,08/12/2020 11:52,1.60743E+12,0,08/12/2020 11:52,27169,8,task-pf6t,,8418925,BLIND,2563035,,complete,lxlkbl,,computer,Desktop or Laptop,Windows 10,Chrome 87.0.4280.88,2560x1080,2543x1080,,Meta-Task,29,Meta-first,survey-likert,955,1306798,2197,"{""Q0"":1}",,,,simpleperceptual,82,confidencerating,0.166666667,3.1,0.972222222,66.83333333,1,,,22
194,1.60743E+12,08/12/2020 11:52,1.60743E+12,0,08/12/2020 11:52,27169,8,task-pf6t,,8418925,BLIND,2563035,,complete,lxlkbl,,computer,Desktop or Laptop,Windows 10,Chrome 87.0.4280.88,2560x1080,2543x1080,,Meta-Task,29,Meta-first,doublestim,962,1311249,511,,69,1,,simpleperceptual,83,responsePerceptual,,3.1,,66.83333333,1,,,22
195,1.60743E+12,08/12/2020 11:52,1.60743E+12,0,08/12/2020 11:52,27169,8,task-pf6t,,8418925,BLIND,2563035,,complete,lxlkbl,,computer,Desktop or Laptop,Windows 10,Chrome 87.0.4280.88,2560x1080,2543x1080,,Meta-Task,29,Meta-first,survey-likert,964,1313022,1244,"{""Q0"":1}",,1,,simpleperceptual,83,confidencerating,0.166666667,3.1,0.305555556,67.13888889,1,,,22
196,1.60743E+12,08/12/2020 11:52,1.60743E+12,0,08/12/2020 11:52,27169,8,task-pf6t,,8418925,BLIND,2563035,,complete,lxlkbl,,computer,Desktop or Laptop,Windows 10,Chrome 87.0.4280.88,2560x1080,2543x1080,,Meta-Task,29,Meta-first,doublestim,971,1317527,551,,69,1,,simpleperceptual,84,responsePerceptual,,3.1,,67.13888889,1,,,22
197,1.60743E+12,08/12/2020 11:52,1.60743E+12,0,08/12/2020 11:52,27169,8,task-pf6t,,8418925,BLIND,2563035,,complete,lxlkbl,,computer,Desktop or Laptop,Windows 10,Chrome 87.0.4280.88,2560x1080,2543x1080,,Meta-Task,29,Meta-first,survey-likert,973,1319190,1133,"{""Q0"":4}",,1,,simpleperceptual,84,confidencerating,0.666666667,3.1,0.888888889,68.02777778,1,,,22
198,1.60743E+12,08/12/2020 11:55,1.60743E+12,0,08/12/2020 11:55,27169,8,task-pf6t,,8418925,BLIND,2563035,,complete,lxlkbl,,computer,Desktop or Laptop,Windows 10,Chrome 87.0.4280.88,2560x1080,2543x1080,,Meta-Task,29,Meta-first,doublestim,981,1477967,246,,87,1,,simpleperceptual,85,responsePerceptual,,3.1,,68.02777778,1,,,22
199,1.60743E+12,08/12/2020 11:55,1.60743E+12,0,08/12/2020 11:55,27169,8,task-pf6t,,8418925,BLIND,2563035,,complete,lxlkbl,,computer,Desktop or Laptop,Windows 10,Chrome 87.0.4280.88,2560x1080,2543x1080,,Meta-Task,29,Meta-first,survey-likert,983,1480278,1775,"{""Q0"":5}",,1,,simpleperceptual,85,confidencerating,0.833333333,3.1,0.972222222,69,1,,,22
200,1.60743E+12,08/12/2020 11:55,1.60743E+12,0,08/12/2020 11:55,27169,8,task-pf6t,,8418925,BLIND,2563035,,complete,lxlkbl,,computer,Desktop or Laptop,Windows 10,Chrome 87.0.4280.88,2560x1080,2543x1080,,Meta-Task,29,Meta-first,doublestim,990,1484576,358,,87,1,,simpleperceptual,86,responsePerceptual,,3.1,,69,1,,,22
201,1.60743E+12,08/12/2020 11:55,1.60743E+12,0,08/12/2020 11:55,27169,8,task-pf6t,,8418925,BLIND,2563035,,complete,lxlkbl,,computer,Desktop or Laptop,Windows 10,Chrome 87.0.4280.88,2560x1080,2543x1080,,Meta-Task,29,Meta-first,survey-likert,992,1486550,1443,"{""Q0"":5}",,1,,simpleperceptual,86,confidencerating,0.833333333,3.1,0.972222222,69.97222222,1,,,22
202,1.60743E+12,08/12/2020 11:55,1.60743E+12,0,08/12/2020 11:55,27169,8,task-pf6t,,8418925,BLIND,2563035,,complete,lxlkbl,,computer,Desktop or Laptop,Windows 10,Chrome 87.0.4280.88,2560x1080,2543x1080,,Meta-Task,29,Meta-first,doublestim,999,1490742,247,,87,1,,simpleperceptual,87,responsePerceptual,,3.1,,69.97222222,1,,,22
203,1.60743E+12,08/12/2020 11:55,1.60743E+12,0,08/12/2020 11:55,27169,8,task-pf6t,,8418925,BLIND,2563035,,complete,lxlkbl,,computer,Desktop or Laptop,Windows 10,Chrome 87.0.4280.88,2560x1080,2543x1080,,Meta-Task,29,Meta-first,survey-likert,1001,1492774,1502,"{""Q0"":5}",,1,,simpleperceptual,87,confidencerating,0.833333333,3.1,0.972222222,70.94444444,1,,,22
204,1.60743E+12,08/12/2020 11:55,1.60743E+12,0,08/12/2020 11:55,27169,8,task-pf6t,,8418925,BLIND,2563035,,complete,lxlkbl,,computer,Desktop or Laptop,Windows 10,Chrome 87.0.4280.88,2560x1080,2543x1080,,Meta-Task,29,Meta-first,doublestim,1008,1497176,463,,87,,,simpleperceptual,88,responsePerceptual,,3.1,,70.94444444,1,,,22
205,1.60743E+12,08/12/2020 11:55,1.60743E+12,0,08/12/2020 11:55,27169,8,task-pf6t,,8418925,BLIND,2563035,,complete,lxlkbl,,computer,Desktop or Laptop,Windows 10,Chrome 87.0.4280.88,2560x1080,2543x1080,,Meta-Task,29,Meta-first,survey-likert,1010,1499894,2187,"{""Q0"":2}",,,,simpleperceptual,88,confidencerating,0.333333333,3.1,0.888888889,71.83333333,1,,,22
206,1.60743E+12,08/12/2020 11:55,1.60743E+12,0,08/12/2020 11:55,27169,8,task-pf6t,,8418925,BLIND,2563035,,complete,lxlkbl,,computer,Desktop or Laptop,Windows 10,Chrome 87.0.4280.88,2560x1080,2543x1080,,Meta-Task,29,Meta-first,doublestim,1017,1504351,516,,69,1,,simpleperceptual,89,responsePerceptual,,3.1,,71.83333333,1,,,22
207,1.60743E+12,08/12/2020 11:55,1.60743E+12,0,08/12/2020 11:55,27169,8,task-pf6t,,8418925,BLIND,2563035,,complete,lxlkbl,,computer,Desktop or Laptop,Windows 10,Chrome 87.0.4280.88,2560x1080,2543x1080,,Meta-Task,29,Meta-first,survey-likert,1019,1506318,1438,"{""Q0"":2}",,1,,simpleperceptual,89,confidencerating,0.333333333,3.1,0.555555556,72.38888889,1,,,22
208,1.60743E+12,08/12/2020 11:55,1.60743E+12,0,08/12/2020 11:55,27169,8,task-pf6t,,8418925,BLIND,2563035,,complete,lxlkbl,,computer,Desktop or Laptop,Windows 10,Chrome 87.0.4280.88,2560x1080,2543x1080,,Meta-Task,29,Meta-first,doublestim,1026,1510656,389,,87,1,,simpleperceptual,90,responsePerceptual,,3.1,,72.38888889,1,,,22
209,1.60743E+12,08/12/2020 11:55,1.60743E+12,0,08/12/2020 11:55,27169,8,task-pf6t,,8418925,BLIND,2563035,,complete,lxlkbl,,computer,Desktop or Laptop,Windows 10,Chrome 87.0.4280.88,2560x1080,2543x1080,,Meta-Task,29,Meta-first,survey-likert,1028,1512446,1261,"{""Q0"":2}",,1,,simpleperceptual,90,confidencerating,0.333333333,3.1,0.555555556,72.94444444,1,,,22
210,1.60743E+12,08/12/2020 11:56,1.60743E+12,0,08/12/2020 11:56,27169,8,task-pf6t,,8418925,BLIND,2563035,,complete,lxlkbl,,computer,Desktop or Laptop,Windows 10,Chrome 87.0.4280.88,2560x1080,2543x1080,,Meta-Task,29,Meta-first,doublestim,1035,1516822,427,,87,1,,simpleperceptual,91,responsePerceptual,,3.1,,72.94444444,1,,,22
211,1.60743E+12,08/12/2020 11:56,1.60743E+12,0,08/12/2020 11:56,27169,8,task-pf6t,,8418925,BLIND,2563035,,complete,lxlkbl,,computer,Desktop or Laptop,Windows 10,Chrome 87.0.4280.88,2560x1080,2543x1080,,Meta-Task,29,Meta-first,survey-likert,1037,1518614,1263,"{""Q0"":4}",,1,,simpleperceptual,91,confidencerating,0.666666667,3.1,0.888888889,73.83333333,1,,,22
212,1.60743E+12,08/12/2020 11:56,1.60743E+12,0,08/12/2020 11:56,27169,8,task-pf6t,,8418925,BLIND,2563035,,complete,lxlkbl,,computer,Desktop or Laptop,Windows 10,Chrome 87.0.4280.88,2560x1080,2543x1080,,Meta-Task,29,Meta-first,doublestim,1044,1523752,1191,,87,1,,simpleperceptual,92,responsePerceptual,,3.1,,73.83333333,1,,,22
213,1.60743E+12,08/12/2020 11:56,1.60743E+12,0,08/12/2020 11:56,27169,8,task-pf6t,,8418925,BLIND,2563035,,complete,lxlkbl,,computer,Desktop or Laptop,Windows 10,Chrome 87.0.4280.88,2560x1080,2543x1080,,Meta-Task,29,Meta-first,survey-likert,1046,1526150,1866,"{""Q0"":1}",,1,,simpleperceptual,92,confidencerating,0.166666667,3.1,0.305555556,74.13888889,1,,,22
214,1.60743E+12,08/12/2020 11:56,1.60743E+12,0,08/12/2020 11:56,27169,8,task-pf6t,,8418925,BLIND,2563035,,complete,lxlkbl,,computer,Desktop or Laptop,Windows 10,Chrome 87.0.4280.88,2560x1080,2543x1080,,Meta-Task,29,Meta-first,doublestim,1053,1530783,689,,69,1,,simpleperceptual,93,responsePerceptual,,3.1,,74.13888889,1,,,22
215,1.60743E+12,08/12/2020 11:56,1.60743E+12,0,08/12/2020 11:56,27169,8,task-pf6t,,8418925,BLIND,2563035,,complete,lxlkbl,,computer,Desktop or Laptop,Windows 10,Chrome 87.0.4280.88,2560x1080,2543x1080,,Meta-Task,29,Meta-first,survey-likert,1055,1532814,1503,"{""Q0"":2}",,1,,simpleperceptual,93,confidencerating,0.333333333,3.1,0.555555556,74.69444444,1,,,22
216,1.60743E+12,08/12/2020 11:56,1.60743E+12,0,08/12/2020 11:56,27169,8,task-pf6t,,8418925,BLIND,2563035,,complete,lxlkbl,,computer,Desktop or Laptop,Windows 10,Chrome 87.0.4280.88,2560x1080,2543x1080,,Meta-Task,29,Meta-first,doublestim,1062,1537080,352,,69,1,,simpleperceptual,94,responsePerceptual,,3.1,,74.69444444,1,,,22
217,1.60743E+12,08/12/2020 11:56,1.60743E+12,0,08/12/2020 11:56,27169,8,task-pf6t,,8418925,BLIND,2563035,,complete,lxlkbl,,computer,Desktop or Laptop,Windows 10,Chrome 87.0.4280.88,2560x1080,2543x1080,,Meta-Task,29,Meta-first,survey-likert,1064,1538894,1278,"{""Q0"":4}",,1,,simpleperceptual,94,confidencerating,0.666666667,3.1,0.888888889,75.58333333,1,,,22
218,1.60743E+12,08/12/2020 11:56,1.60743E+12,0,08/12/2020 11:56,27169,8,task-pf6t,,8418925,BLIND,2563035,,complete,lxlkbl,,computer,Desktop or Laptop,Windows 10,Chrome 87.0.4280.88,2560x1080,2543x1080,,Meta-Task,29,Meta-first,doublestim,1071,1543191,350,,69,1,,simpleperceptual,95,responsePerceptual,,3.1,,75.58333333,1,,,22
219,1.60743E+12,08/12/2020 11:56,1.60743E+12,0,08/12/2020 11:56,27169,8,task-pf6t,,8418925,BLIND,2563035,,complete,lxlkbl,,computer,Desktop or Laptop,Windows 10,Chrome 87.0.4280.88,2560x1080,2543x1080,,Meta-Task,29,Meta-first,survey-likert,1073,1545366,1644,"{""Q0"":4}",,1,,simpleperceptual,95,confidencerating,0.666666667,3.1,0.888888889,76.47222222,1,,,22
220,1.60743E+12,08/12/2020 11:56,1.60743E+12,0,08/12/2020 11:56,27169,8,task-pf6t,,8418925,BLIND,2563035,,complete,lxlkbl,,computer,Desktop or Laptop,Windows 10,Chrome 87.0.4280.88,2560x1080,2543x1080,,Meta-Task,29,Meta-first,doublestim,1080,1549504,181,,87,1,,simpleperceptual,96,responsePerceptual,,3.1,,76.47222222,1,,,22
221,1.60743E+12,08/12/2020 11:56,1.60743E+12,0,08/12/2020 11:56,27169,8,task-pf6t,,8418925,BLIND,2563035,,complete,lxlkbl,,computer,Desktop or Laptop,Windows 10,Chrome 87.0.4280.88,2560x1080,2543x1080,,Meta-Task,29,Meta-first,survey-likert,1082,1553166,3132,"{""Q0"":3}",,1,,simpleperceptual,96,confidencerating,0.5,3.1,0.75,77.22222222,1,,,22
222,1.60743E+12,08/12/2020 11:56,1.60743E+12,0,08/12/2020 11:56,27169,8,task-pf6t,,8418925,BLIND,2563035,,complete,lxlkbl,,computer,Desktop or Laptop,Windows 10,Chrome 87.0.4280.88,2560x1080,2543x1080,,Meta-Task,29,Meta-first,doublestim,1089,1557471,357,,69,1,,simpleperceptual,97,responsePerceptual,,3.1,,77.22222222,1,,,22
223,1.60743E+12,08/12/2020 11:56,1.60743E+12,0,08/12/2020 11:56,27169,8,task-pf6t,,8418925,BLIND,2563035,,complete,lxlkbl,,computer,Desktop or Laptop,Windows 10,Chrome 87.0.4280.88,2560x1080,2543x1080,,Meta-Task,29,Meta-first,survey-likert,1091,1559262,1260,"{""Q0"":4}",,1,,simpleperceptual,97,confidencerating,0.666666667,3.1,0.888888889,78.11111111,1,,,22
224,1.60743E+12,08/12/2020 11:56,1.60743E+12,0,08/12/2020 11:56,27169,8,task-pf6t,,8418925,BLIND,2563035,,complete,lxlkbl,,computer,Desktop or Laptop,Windows 10,Chrome 87.0.4280.88,2560x1080,2543x1080,,Meta-Task,29,Meta-first,doublestim,1098,1563640,431,,87,1,,simpleperceptual,98,responsePerceptual,,3.1,,78.11111111,1,,,22
225,1.60743E+12,08/12/2020 11:56,1.60743E+12,0,08/12/2020 11:56,27169,8,task-pf6t,,8418925,BLIND,2563035,,complete,lxlkbl,,computer,Desktop or Laptop,Windows 10,Chrome 87.0.4280.88,2560x1080,2543x1080,,Meta-Task,29,Meta-first,survey-likert,1100,1566318,2147,"{""Q0"":1}",,1,,simpleperceptual,98,confidencerating,0.166666667,3.1,0.305555556,78.41666667,1,,,22
226,1.60743E+12,08/12/2020 11:56,1.60743E+12,0,08/12/2020 11:56,27169,8,task-pf6t,,8418925,BLIND,2563035,,complete,lxlkbl,,computer,Desktop or Laptop,Windows 10,Chrome 87.0.4280.88,2560x1080,2543x1080,,Meta-Task,29,Meta-first,doublestim,1107,1570855,598,,87,1,,simpleperceptual,99,responsePerceptual,,3.1,,78.41666667,1,,,22
227,1.60743E+12,08/12/2020 11:56,1.60743E+12,0,08/12/2020 11:56,27169,8,task-pf6t,,8418925,BLIND,2563035,,complete,lxlkbl,,computer,Desktop or Laptop,Windows 10,Chrome 87.0.4280.88,2560x1080,2543x1080,,Meta-Task,29,Meta-first,survey-likert,1109,1573694,2309,"{""Q0"":4}",,1,,simpleperceptual,99,confidencerating,0.666666667,3.1,0.888888889,79.30555556,1,,,22
228,1.60743E+12,08/12/2020 11:57,1.60743E+12,0,08/12/2020 11:57,27169,8,task-pf6t,,8418925,BLIND,2563035,,complete,lxlkbl,,computer,Desktop or Laptop,Windows 10,Chrome 87.0.4280.88,2560x1080,2543x1080,,Meta-Task,29,Meta-first,doublestim,1116,1578024,391,,87,1,,simpleperceptual,100,responsePerceptual,,3.1,,79.30555556,1,,,22
229,1.60743E+12,08/12/2020 11:57,1.60743E+12,0,08/12/2020 11:57,27169,8,task-pf6t,,8418925,BLIND,2563035,,complete,lxlkbl,,computer,Desktop or Laptop,Windows 10,Chrome 87.0.4280.88,2560x1080,2543x1080,,Meta-Task,29,Meta-first,survey-likert,1118,1579934,1378,"{""Q0"":4}",,1,,simpleperceptual,100,confidencerating,0.666666667,3.1,0.888888889,80.19444444,1,,,22
230,1.60743E+12,08/12/2020 11:57,1.60743E+12,0,08/12/2020 11:57,27169,8,task-pf6t,,8418925,BLIND,2563035,,complete,lxlkbl,,computer,Desktop or Laptop,Windows 10,Chrome 87.0.4280.88,2560x1080,2543x1080,,Meta-Task,29,Meta-first,doublestim,1125,1584415,532,,69,1,,simpleperceptual,101,responsePerceptual,,3.1,,80.19444444,1,,,22
231,1.60743E+12,08/12/2020 11:57,1.60743E+12,0,08/12/2020 11:57,27169,8,task-pf6t,,8418925,BLIND,2563035,,complete,lxlkbl,,computer,Desktop or Laptop,Windows 10,Chrome 87.0.4280.88,2560x1080,2543x1080,,Meta-Task,29,Meta-first,survey-likert,1127,1587350,2401,"{""Q0"":4}",,1,,simpleperceptual,101,confidencerating,0.666666667,3.1,0.888888889,81.08333333,1,,,22
232,1.60743E+12,08/12/2020 11:57,1.60743E+12,0,08/12/2020 11:57,27169,8,task-pf6t,,8418925,BLIND,2563035,,complete,lxlkbl,,computer,Desktop or Laptop,Windows 10,Chrome 87.0.4280.88,2560x1080,2543x1080,,Meta-Task,29,Meta-first,doublestim,1134,1591840,548,,87,1,,simpleperceptual,102,responsePerceptual,,3.1,,81.08333333,1,,,22
233,1.60743E+12,08/12/2020 11:57,1.60743E+12,0,08/12/2020 11:57,27169,8,task-pf6t,,8418925,BLIND,2563035,,complete,lxlkbl,,computer,Desktop or Laptop,Windows 10,Chrome 87.0.4280.88,2560x1080,2543x1080,,Meta-Task,29,Meta-first,survey-likert,1136,1594006,1636,"{""Q0"":4}",,1,,simpleperceptual,102,confidencerating,0.666666667,3.1,0.888888889,81.97222222,1,,,22
234,1.60743E+12,08/12/2020 11:57,1.60743E+12,0,08/12/2020 11:57,27169,8,task-pf6t,,8418925,BLIND,2563035,,complete,lxlkbl,,computer,Desktop or Laptop,Windows 10,Chrome 87.0.4280.88,2560x1080,2543x1080,,Meta-Task,29,Meta-first,doublestim,1143,1598295,343,,87,1,,simpleperceptual,103,responsePerceptual,,3.1,,81.97222222,1,,,22
235,1.60743E+12,08/12/2020 11:57,1.60743E+12,0,08/12/2020 11:57,27169,8,task-pf6t,,8418925,BLIND,2563035,,complete,lxlkbl,,computer,Desktop or Laptop,Windows 10,Chrome 87.0.4280.88,2560x1080,2543x1080,,Meta-Task,29,Meta-first,survey-likert,1145,1600278,1452,"{""Q0"":3}",,1,,simpleperceptual,103,confidencerating,0.5,3.1,0.75,82.72222222,1,,,22
236,1.60743E+12,08/12/2020 11:57,1.60743E+12,0,08/12/2020 11:57,27169,8,task-pf6t,,8418925,BLIND,2563035,,complete,lxlkbl,,computer,Desktop or Laptop,Windows 10,Chrome 87.0.4280.88,2560x1080,2543x1080,,Meta-Task,29,Meta-first,doublestim,1152,1604240,3,,69,1,,simpleperceptual,104,responsePerceptual,,3.1,,82.72222222,1,,,22
237,1.60743E+12,08/12/2020 11:57,1.60743E+12,0,08/12/2020 11:57,27169,8,task-pf6t,,8418925,BLIND,2563035,,complete,lxlkbl,,computer,Desktop or Laptop,Windows 10,Chrome 87.0.4280.88,2560x1080,2543x1080,,Meta-Task,29,Meta-first,survey-likert,1154,1606694,1924,"{""Q0"":4}",,1,,simpleperceptual,104,confidencerating,0.666666667,3.1,0.888888889,83.61111111,1,,,22
238,1.60743E+12,08/12/2020 11:57,1.60743E+12,0,08/12/2020 11:57,27169,8,task-pf6t,,8418925,BLIND,2563035,,complete,lxlkbl,,computer,Desktop or Laptop,Windows 10,Chrome 87.0.4280.88,2560x1080,2543x1080,,Meta-Task,29,Meta-first,doublestim,1161,1611327,688,,69,1,,simpleperceptual,105,responsePerceptual,,3.1,,83.61111111,1,,,22
239,1.60743E+12,08/12/2020 11:57,1.60743E+12,0,08/12/2020 11:57,27169,8,task-pf6t,,8418925,BLIND,2563035,,complete,lxlkbl,,computer,Desktop or Laptop,Windows 10,Chrome 87.0.4280.88,2560x1080,2543x1080,,Meta-Task,29,Meta-first,survey-likert,1163,1613806,1949,"{""Q0"":1}",,1,,simpleperceptual,105,confidencerating,0.166666667,3.1,0.305555556,83.91666667,1,,,22
240,1.60743E+12,08/12/2020 11:57,1.60743E+12,0,08/12/2020 11:57,27169,8,task-pf6t,,8418925,BLIND,2563035,,complete,lxlkbl,,computer,Desktop or Laptop,Windows 10,Chrome 87.0.4280.88,2560x1080,2543x1080,,Meta-Task,29,Meta-first,doublestim,1170,1618104,336,,69,1,,simpleperceptual,106,responsePerceptual,,3.1,,83.91666667,1,,,22
241,1.60743E+12,08/12/2020 11:57,1.60743E+12,0,08/12/2020 11:57,27169,8,task-pf6t,,8418925,BLIND,2563035,,complete,lxlkbl,,computer,Desktop or Laptop,Windows 10,Chrome 87.0.4280.88,2560x1080,2543x1080,,Meta-Task,29,Meta-first,survey-likert,1172,1620518,1883,"{""Q0"":4}",,1,,simpleperceptual,106,confidencerating,0.666666667,3.1,0.888888889,84.80555556,1,,,22
242,1.60743E+12,08/12/2020 11:57,1.60743E+12,0,08/12/2020 11:57,27169,8,task-pf6t,,8418925,BLIND,2563035,,complete,lxlkbl,,computer,Desktop or Laptop,Windows 10,Chrome 87.0.4280.88,2560x1080,2543x1080,,Meta-Task,29,Meta-first,doublestim,1179,1624839,365,,87,1,,simpleperceptual,107,responsePerceptual,,3.1,,84.80555556,1,,,22
243,1.60743E+12,08/12/2020 11:57,1.60743E+12,0,08/12/2020 11:57,27169,8,task-pf6t,,8418925,BLIND,2563035,,complete,lxlkbl,,computer,Desktop or Laptop,Windows 10,Chrome 87.0.4280.88,2560x1080,2543x1080,,Meta-Task,29,Meta-first,survey-likert,1181,1626302,935,"{""Q0"":3}",,1,,simpleperceptual,107,confidencerating,0.5,3.1,0.75,85.55555556,1,,,22
244,1.60743E+12,08/12/2020 11:57,1.60743E+12,0,08/12/2020 11:57,27169,8,task-pf6t,,8418925,BLIND,2563035,,complete,lxlkbl,,computer,Desktop or Laptop,Windows 10,Chrome 87.0.4280.88,2560x1080,2543x1080,,Meta-Task,29,Meta-first,doublestim,1188,1630672,408,,87,1,,simpleperceptual,108,responsePerceptual,,3.1,,85.55555556,1,,,22
245,1.60743E+12,08/12/2020 11:57,1.60743E+12,0,08/12/2020 11:57,27169,8,task-pf6t,,8418925,BLIND,2563035,,complete,lxlkbl,,computer,Desktop or Laptop,Windows 10,Chrome 87.0.4280.88,2560x1080,2543x1080,,Meta-Task,29,Meta-first,survey-likert,1190,1631839,636,"{""Q0"":3}",,1,,simpleperceptual,108,confidencerating,0.5,3.1,0.75,86.30555556,1,,,22
246,1.60743E+12,08/12/2020 11:58,1.60743E+12,0,08/12/2020 11:58,27169,8,task-pf6t,,8418925,BLIND,2563035,,complete,lxlkbl,,computer,Desktop or Laptop,Windows 10,Chrome 87.0.4280.88,2560x1080,2543x1080,,Meta-Task,29,Meta-first,doublestim,1197,1636327,529,,87,,,simpleperceptual,109,responsePerceptual,,3.1,,86.30555556,1,,,22
247,1.60743E+12,08/12/2020 11:58,1.60743E+12,0,08/12/2020 11:58,27169,8,task-pf6t,,8418925,BLIND,2563035,,complete,lxlkbl,,computer,Desktop or Laptop,Windows 10,Chrome 87.0.4280.88,2560x1080,2543x1080,,Meta-Task,29,Meta-first,survey-likert,1199,1638070,1212,"{""Q0"":1}",,,,simpleperceptual,109,confidencerating,0.166666667,3.1,0.972222222,87.27777778,1,,,22
248,1.60743E+12,08/12/2020 11:58,1.60743E+12,0,08/12/2020 11:58,27169,8,task-pf6t,,8418925,BLIND,2563035,,complete,lxlkbl,,computer,Desktop or Laptop,Windows 10,Chrome 87.0.4280.88,2560x1080,2543x1080,,Meta-Task,29,Meta-first,doublestim,1206,1642824,809,,69,1,,simpleperceptual,110,responsePerceptual,,3.1,,87.27777778,1,,,22
249,1.60743E+12,08/12/2020 11:58,1.60743E+12,0,08/12/2020 11:58,27169,8,task-pf6t,,8418925,BLIND,2563035,,complete,lxlkbl,,computer,Desktop or Laptop,Windows 10,Chrome 87.0.4280.88,2560x1080,2543x1080,,Meta-Task,29,Meta-first,survey-likert,1208,1644861,1504,"{""Q0"":1}",,1,,simpleperceptual,110,confidencerating,0.166666667,3.1,0.305555556,87.58333333,1,,,22
250,1.60743E+12,08/12/2020 11:58,1.60743E+12,0,08/12/2020 11:58,27169,8,task-pf6t,,8418925,BLIND,2563035,,complete,lxlkbl,,computer,Desktop or Laptop,Windows 10,Chrome 87.0.4280.88,2560x1080,2543x1080,,Meta-Task,29,Meta-first,doublestim,1215,1649303,488,,69,1,,simpleperceptual,111,responsePerceptual,,3.1,,87.58333333,1,,,22
251,1.60743E+12,08/12/2020 11:58,1.60743E+12,0,08/12/2020 11:58,27169,8,task-pf6t,,8418925,BLIND,2563035,,complete,lxlkbl,,computer,Desktop or Laptop,Windows 10,Chrome 87.0.4280.88,2560x1080,2543x1080,,Meta-Task,29,Meta-first,survey-likert,1217,1651214,1373,"{""Q0"":1}",,1,,simpleperceptual,111,confidencerating,0.166666667,3.1,0.305555556,87.88888889,1,,,22
252,1.60743E+12,08/12/2020 11:58,1.60743E+12,0,08/12/2020 11:58,27169,8,task-pf6t,,8418925,BLIND,2563035,,complete,lxlkbl,,computer,Desktop or Laptop,Windows 10,Chrome 87.0.4280.88,2560x1080,2543x1080,,Meta-Task,29,Meta-first,doublestim,1224,1655784,626,,87,1,,simpleperceptual,112,responsePerceptual,,3.1,,87.88888889,1,,,22
253,1.60743E+12,08/12/2020 11:58,1.60743E+12,0,08/12/2020 11:58,27169,8,task-pf6t,,8418925,BLIND,2563035,,complete,lxlkbl,,computer,Desktop or Laptop,Windows 10,Chrome 87.0.4280.88,2560x1080,2543x1080,,Meta-Task,29,Meta-first,survey-likert,1226,1657918,1603,"{""Q0"":1}",,1,,simpleperceptual,112,confidencerating,0.166666667,3.1,0.305555556,88.19444444,1,,,22
254,1.60743E+12,08/12/2020 11:58,1.60743E+12,0,08/12/2020 11:58,27169,8,task-pf6t,,8418925,BLIND,2563035,,complete,lxlkbl,,computer,Desktop or Laptop,Windows 10,Chrome 87.0.4280.88,2560x1080,2543x1080,,Meta-Task,29,Meta-first,doublestim,1233,1662415,552,,87,,,simpleperceptual,113,responsePerceptual,,3.1,,88.19444444,1,,,22
255,1.60743E+12,08/12/2020 11:58,1.60743E+12,0,08/12/2020 11:58,27169,8,task-pf6t,,8418925,BLIND,2563035,,complete,lxlkbl,,computer,Desktop or Laptop,Windows 10,Chrome 87.0.4280.88,2560x1080,2543x1080,,Meta-Task,29,Meta-first,survey-likert,1235,1665022,2076,"{""Q0"":1}",,,,simpleperceptual,113,confidencerating,0.166666667,3.1,0.972222222,89.16666667,1,,,22
256,1.60743E+12,08/12/2020 11:58,1.60743E+12,0,08/12/2020 11:58,27169,8,task-pf6t,,8418925,BLIND,2563035,,complete,lxlkbl,,computer,Desktop or Laptop,Windows 10,Chrome 87.0.4280.88,2560x1080,2543x1080,,Meta-Task,29,Meta-first,doublestim,1242,1669680,714,,69,1,,simpleperceptual,114,responsePerceptual,,3.1,,89.16666667,1,,,22
257,1.60743E+12,08/12/2020 11:58,1.60743E+12,0,08/12/2020 11:58,27169,8,task-pf6t,,8418925,BLIND,2563035,,complete,lxlkbl,,computer,Desktop or Laptop,Windows 10,Chrome 87.0.4280.88,2560x1080,2543x1080,,Meta-Task,29,Meta-first,survey-likert,1244,1671822,1604,"{""Q0"":1}",,1,,simpleperceptual,114,confidencerating,0.166666667,3.1,0.305555556,89.47222222,1,,,22
258,1.60743E+12,08/12/2020 11:58,1.60743E+12,0,08/12/2020 11:58,27169,8,task-pf6t,,8418925,BLIND,2563035,,complete,lxlkbl,,computer,Desktop or Laptop,Windows 10,Chrome 87.0.4280.88,2560x1080,2543x1080,,Meta-Task,29,Meta-first,doublestim,1251,1676279,515,,87,1,,simpleperceptual,115,responsePerceptual,,3.1,,89.47222222,1,,,22
259,1.60743E+12,08/12/2020 11:58,1.60743E+12,0,08/12/2020 11:58,27169,8,task-pf6t,,8418925,BLIND,2563035,,complete,lxlkbl,,computer,Desktop or Laptop,Windows 10,Chrome 87.0.4280.88,2560x1080,2543x1080,,Meta-Task,29,Meta-first,survey-likert,1253,1678310,1501,"{""Q0"":4}",,1,,simpleperceptual,115,confidencerating,0.666666667,3.1,0.888888889,90.36111111,1,,,22
260,1.60743E+12,08/12/2020 11:58,1.60743E+12,0,08/12/2020 11:58,27169,8,task-pf6t,,8418925,BLIND,2563035,,complete,lxlkbl,,computer,Desktop or Laptop,Windows 10,Chrome 87.0.4280.88,2560x1080,2543x1080,,Meta-Task,29,Meta-first,doublestim,1260,1682712,454,,69,1,,simpleperceptual,116,responsePerceptual,,3.1,,90.36111111,1,,,22
261,1.60743E+12,08/12/2020 11:58,1.60743E+12,0,08/12/2020 11:58,27169,8,task-pf6t,,8418925,BLIND,2563035,,complete,lxlkbl,,computer,Desktop or Laptop,Windows 10,Chrome 87.0.4280.88,2560x1080,2543x1080,,Meta-Task,29,Meta-first,survey-likert,1262,1684782,1538,"{""Q0"":2}",,1,,simpleperceptual,116,confidencerating,0.333333333,3.1,0.555555556,90.91666667,1,,,22
262,1.60743E+12,08/12/2020 11:58,1.60743E+12,0,08/12/2020 11:58,27169,8,task-pf6t,,8418925,BLIND,2563035,,complete,lxlkbl,,computer,Desktop or Laptop,Windows 10,Chrome 87.0.4280.88,2560x1080,2543x1080,,Meta-Task,29,Meta-first,doublestim,1269,1689183,442,,69,1,,simpleperceptual,117,responsePerceptual,,3.1,,90.91666667,1,,,22
263,1.60743E+12,08/12/2020 11:58,1.60743E+12,0,08/12/2020 11:58,27169,8,task-pf6t,,8418925,BLIND,2563035,,complete,lxlkbl,,computer,Desktop or Laptop,Windows 10,Chrome 87.0.4280.88,2560x1080,2543x1080,,Meta-Task,29,Meta-first,survey-likert,1271,1690918,1204,"{""Q0"":2}",,1,,simpleperceptual,117,confidencerating,0.333333333,3.1,0.555555556,91.47222222,1,,,22
264,1.60743E+12,08/12/2020 11:58,1.60743E+12,0,08/12/2020 11:58,27169,8,task-pf6t,,8418925,BLIND,2563035,,complete,lxlkbl,,computer,Desktop or Laptop,Windows 10,Chrome 87.0.4280.88,2560x1080,2543x1080,,Meta-Task,29,Meta-first,doublestim,1278,1694960,104,,87,1,,simpleperceptual,118,responsePerceptual,,3.1,,91.47222222,1,,,22
265,1.60743E+12,08/12/2020 11:59,1.60743E+12,0,08/12/2020 11:59,27169,8,task-pf6t,,8418925,BLIND,2563035,,complete,lxlkbl,,computer,Desktop or Laptop,Windows 10,Chrome 87.0.4280.88,2560x1080,2543x1080,,Meta-Task,29,Meta-first,survey-likert,1280,1696718,1223,"{""Q0"":4}",,1,,simpleperceptual,118,confidencerating,0.666666667,3.1,0.888888889,92.36111111,1,,,22
266,1.60743E+12,08/12/2020 11:59,1.60743E+12,0,08/12/2020 11:59,27169,8,task-pf6t,,8418925,BLIND,2563035,,complete,lxlkbl,,computer,Desktop or Laptop,Windows 10,Chrome 87.0.4280.88,2560x1080,2543x1080,,Meta-Task,29,Meta-first,doublestim,1287,1700999,333,,69,1,,simpleperceptual,119,responsePerceptual,,3.1,,92.36111111,1,,,22
267,1.60743E+12,08/12/2020 11:59,1.60743E+12,0,08/12/2020 11:59,27169,8,task-pf6t,,8418925,BLIND,2563035,,complete,lxlkbl,,computer,Desktop or Laptop,Windows 10,Chrome 87.0.4280.88,2560x1080,2543x1080,,Meta-Task,29,Meta-first,survey-likert,1289,1702846,1318,"{""Q0"":4}",,1,,simpleperceptual,119,confidencerating,0.666666667,3.1,0.888888889,93.25,1,,,22
268,1.60743E+12,08/12/2020 11:59,1.60743E+12,0,08/12/2020 11:59,27169,8,task-pf6t,,8418925,BLIND,2563035,,complete,lxlkbl,,computer,Desktop or Laptop,Windows 10,Chrome 87.0.4280.88,2560x1080,2543x1080,,Meta-Task,29,Meta-first,doublestim,1296,1708198,1417,,87,1,,simpleperceptual,120,responsePerceptual,,3.1,,93.25,1,,,22
269,1.60743E+12,08/12/2020 11:59,1.60743E+12,0,08/12/2020 11:59,27169,8,task-pf6t,,8418925,BLIND,2563035,,complete,lxlkbl,,computer,Desktop or Laptop,Windows 10,Chrome 87.0.4280.88,2560x1080,2543x1080,,Meta-Task,29,Meta-first,survey-likert,1298,1710606,1877,"{""Q0"":4}",,1,,simpleperceptual,120,confidencerating,0.666666667,3.1,0.888888889,94.13888889,1,,,22
270,1.60743E+12,08/12/2020 11:59,1.60743E+12,0,08/12/2020 11:59,27169,8,task-pf6t,,8418925,BLIND,2563035,,complete,lxlkbl,,computer,Desktop or Laptop,Windows 10,Chrome 87.0.4280.88,2560x1080,2543x1080,,Meta-Task,29,Meta-first,doublestim,1305,1714823,273,,69,1,,simpleperceptual,121,responsePerceptual,,3.1,,94.13888889,1,,,22
271,1.60743E+12,08/12/2020 11:59,1.60743E+12,0,08/12/2020 11:59,27169,8,task-pf6t,,8418925,BLIND,2563035,,complete,lxlkbl,,computer,Desktop or Laptop,Windows 10,Chrome 87.0.4280.88,2560x1080,2543x1080,,Meta-Task,29,Meta-first,survey-likert,1307,1716686,1334,"{""Q0"":4}",,1,,simpleperceptual,121,confidencerating,0.666666667,3.1,0.888888889,95.02777778,1,,,22
272,1.60743E+12,08/12/2020 11:59,1.60743E+12,0,08/12/2020 11:59,27169,8,task-pf6t,,8418925,BLIND,2563035,,complete,lxlkbl,,computer,Desktop or Laptop,Windows 10,Chrome 87.0.4280.88,2560x1080,2543x1080,,Meta-Task,29,Meta-first,doublestim,1314,1720881,286,,87,1,,simpleperceptual,122,responsePerceptual,,3.1,,95.02777778,1,,,22
273,1.60743E+12,08/12/2020 11:59,1.60743E+12,0,08/12/2020 11:59,27169,8,task-pf6t,,8418925,BLIND,2563035,,complete,lxlkbl,,computer,Desktop or Laptop,Windows 10,Chrome 87.0.4280.88,2560x1080,2543x1080,,Meta-Task,29,Meta-first,survey-likert,1316,1722678,1268,"{""Q0"":2}",,1,,simpleperceptual,122,confidencerating,0.333333333,3.1,0.555555556,95.58333333,1,,,22
274,1.60743E+12,08/12/2020 11:59,1.60743E+12,0,08/12/2020 11:59,27169,8,task-pf6t,,8418925,BLIND,2563035,,complete,lxlkbl,,computer,Desktop or Laptop,Windows 10,Chrome 87.0.4280.88,2560x1080,2543x1080,,Meta-Task,29,Meta-first,doublestim,1323,1726919,309,,69,1,,simpleperceptual,123,responsePerceptual,,3.1,,95.58333333,1,,,22
275,1.60743E+12,08/12/2020 11:59,1.60743E+12,0,08/12/2020 11:59,27169,8,task-pf6t,,8418925,BLIND,2563035,,complete,lxlkbl,,computer,Desktop or Laptop,Windows 10,Chrome 87.0.4280.88,2560x1080,2543x1080,,Meta-Task,29,Meta-first,survey-likert,1325,1729398,1949,"{""Q0"":3}",,1,,simpleperceptual,123,confidencerating,0.5,3.1,0.75,96.33333333,1,,,22
276,1.60743E+12,08/12/2020 11:59,1.60743E+12,0,08/12/2020 11:59,27169,8,task-pf6t,,8418925,BLIND,2563035,,complete,lxlkbl,,computer,Desktop or Laptop,Windows 10,Chrome 87.0.4280.88,2560x1080,2543x1080,,Meta-Task,29,Meta-first,doublestim,1332,1733729,376,,69,1,,simpleperceptual,124,responsePerceptual,,3.1,,96.33333333,1,,,22
277,1.60743E+12,08/12/2020 11:59,1.60743E+12,0,08/12/2020 11:59,27169,8,task-pf6t,,8418925,BLIND,2563035,,complete,lxlkbl,,computer,Desktop or Laptop,Windows 10,Chrome 87.0.4280.88,2560x1080,2543x1080,,Meta-Task,29,Meta-first,survey-likert,1334,1735686,1428,"{""Q0"":1}",,1,,simpleperceptual,124,confidencerating,0.166666667,3.1,0.305555556,96.63888889,1,,,22
278,1.60743E+12,08/12/2020 11:59,1.60743E+12,0,08/12/2020 11:59,27169,8,task-pf6t,,8418925,BLIND,2563035,,complete,lxlkbl,,computer,Desktop or Laptop,Windows 10,Chrome 87.0.4280.88,2560x1080,2543x1080,,Meta-Task,29,Meta-first,doublestim,1341,1739919,288,,69,1,,simpleperceptual,125,responsePerceptual,,3.1,,96.63888889,1,,,22
279,1.60743E+12,08/12/2020 11:59,1.60743E+12,0,08/12/2020 11:59,27169,8,task-pf6t,,8418925,BLIND,2563035,,complete,lxlkbl,,computer,Desktop or Laptop,Windows 10,Chrome 87.0.4280.88,2560x1080,2543x1080,,Meta-Task,29,Meta-first,survey-likert,1343,1742006,1556,"{""Q0"":1}",,1,,simpleperceptual,125,confidencerating,0.166666667,3.1,0.305555556,96.94444444,1,,,22
280,1.60743E+12,08/12/2020 11:59,1.60743E+12,0,08/12/2020 11:59,27169,8,task-pf6t,,8418925,BLIND,2563035,,complete,lxlkbl,,computer,Desktop or Laptop,Windows 10,Chrome 87.0.4280.88,2560x1080,2543x1080,,Meta-Task,29,Meta-first,doublestim,1350,1746274,347,,87,,,simpleperceptual,126,responsePerceptual,,3.1,,96.94444444,1,,,22
281,1.60743E+12,08/12/2020 11:59,1.60743E+12,0,08/12/2020 11:59,27169,8,task-pf6t,,8418925,BLIND,2563035,,complete,lxlkbl,,computer,Desktop or Laptop,Windows 10,Chrome 87.0.4280.88,2560x1080,2543x1080,,Meta-Task,29,Meta-first,survey-likert,1352,1748446,1642,"{""Q0"":2}",,,,simpleperceptual,126,confidencerating,0.333333333,3.1,0.888888889,97.83333333,1,,,22
282,1.60743E+12,08/12/2020 12:03,1.60743E+12,0,08/12/2020 12:03,27169,8,task-pf6t,,8418925,BLIND,2563035,,complete,lxlkbl,,computer,Desktop or Laptop,Windows 10,Chrome 87.0.4280.88,2560x1080,2543x1080,,Meta-Task,29,Meta-first,doublestim,1360,1953526,465,,87,1,,simpleperceptual,127,responsePerceptual,,3.1,,97.83333333,1,,,22
283,1.60743E+12,08/12/2020 12:03,1.60743E+12,0,08/12/2020 12:03,27169,8,task-pf6t,,8418925,BLIND,2563035,,complete,lxlkbl,,computer,Desktop or Laptop,Windows 10,Chrome 87.0.4280.88,2560x1080,2543x1080,,Meta-Task,29,Meta-first,survey-likert,1362,1955493,1435,"{""Q0"":5}",,1,,simpleperceptual,127,confidencerating,0.833333333,3.1,0.972222222,98.80555556,1,,,22
284,1.60743E+12,08/12/2020 12:03,1.60743E+12,0,08/12/2020 12:03,27169,8,task-pf6t,,8418925,BLIND,2563035,,complete,lxlkbl,,computer,Desktop or Laptop,Windows 10,Chrome 87.0.4280.88,2560x1080,2543x1080,,Meta-Task,29,Meta-first,doublestim,1369,1959832,396,,87,1,,simpleperceptual,128,responsePerceptual,,3.1,,98.80555556,1,,,22
285,1.60743E+12,08/12/2020 12:03,1.60743E+12,0,08/12/2020 12:03,27169,8,task-pf6t,,8418925,BLIND,2563035,,complete,lxlkbl,,computer,Desktop or Laptop,Windows 10,Chrome 87.0.4280.88,2560x1080,2543x1080,,Meta-Task,29,Meta-first,survey-likert,1371,1961813,1449,"{""Q0"":5}",,1,,simpleperceptual,128,confidencerating,0.833333333,3.1,0.972222222,99.77777778,1,,,22
286,1.60743E+12,08/12/2020 12:03,1.60743E+12,0,08/12/2020 12:03,27169,8,task-pf6t,,8418925,BLIND,2563035,,complete,lxlkbl,,computer,Desktop or Laptop,Windows 10,Chrome 87.0.4280.88,2560x1080,2543x1080,,Meta-Task,29,Meta-first,doublestim,1378,1966078,321,,87,1,,simpleperceptual,129,responsePerceptual,,3.1,,99.77777778,1,,,22
287,1.60743E+12,08/12/2020 12:03,1.60743E+12,0,08/12/2020 12:03,27169,8,task-pf6t,,8418925,BLIND,2563035,,complete,lxlkbl,,computer,Desktop or Laptop,Windows 10,Chrome 87.0.4280.88,2560x1080,2543x1080,,Meta-Task,29,Meta-first,survey-likert,1380,1968277,1671,"{""Q0"":5}",,1,,simpleperceptual,129,confidencerating,0.833333333,3.1,0.972222222,100.75,1,,,22
288,1.60743E+12,08/12/2020 12:03,1.60743E+12,0,08/12/2020 12:03,27169,8,task-pf6t,,8418925,BLIND,2563035,,complete,lxlkbl,,computer,Desktop or Laptop,Windows 10,Chrome 87.0.4280.88,2560x1080,2543x1080,,Meta-Task,29,Meta-first,doublestim,1387,1972623,397,,69,1,,simpleperceptual,130,responsePerceptual,,3.1,,100.75,1,,,22
289,1.60743E+12,08/12/2020 12:03,1.60743E+12,0,08/12/2020 12:03,27169,8,task-pf6t,,8418925,BLIND,2563035,,complete,lxlkbl,,computer,Desktop or Laptop,Windows 10,Chrome 87.0.4280.88,2560x1080,2543x1080,,Meta-Task,29,Meta-first,survey-likert,1389,1975069,1916,"{""Q0"":4}",,1,,simpleperceptual,130,confidencerating,0.666666667,3.1,0.888888889,101.6388889,1,,,22
290,1.60743E+12,08/12/2020 12:03,1.60743E+12,0,08/12/2020 12:03,27169,8,task-pf6t,,8418925,BLIND,2563035,,complete,lxlkbl,,computer,Desktop or Laptop,Windows 10,Chrome 87.0.4280.88,2560x1080,2543x1080,,Meta-Task,29,Meta-first,doublestim,1396,1979966,952,,69,1,,simpleperceptual,131,responsePerceptual,,3.1,,101.6388889,1,,,22
291,1.60743E+12,08/12/2020 12:03,1.60743E+12,0,08/12/2020 12:03,27169,8,task-pf6t,,8418925,BLIND,2563035,,complete,lxlkbl,,computer,Desktop or Laptop,Windows 10,Chrome 87.0.4280.88,2560x1080,2543x1080,,Meta-Task,29,Meta-first,survey-likert,1398,1982317,1822,"{""Q0"":1}",,1,,simpleperceptual,131,confidencerating,0.166666667,3.1,0.305555556,101.9444444,1,,,22
292,1.60743E+12,08/12/2020 12:03,1.60743E+12,0,08/12/2020 12:03,27169,8,task-pf6t,,8418925,BLIND,2563035,,complete,lxlkbl,,computer,Desktop or Laptop,Windows 10,Chrome 87.0.4280.88,2560x1080,2543x1080,,Meta-Task,29,Meta-first,doublestim,1405,1986728,456,,87,1,,simpleperceptual,132,responsePerceptual,,3.1,,101.9444444,1,,,22
293,1.60743E+12,08/12/2020 12:03,1.60743E+12,0,08/12/2020 12:03,27169,8,task-pf6t,,8418925,BLIND,2563035,,complete,lxlkbl,,computer,Desktop or Laptop,Windows 10,Chrome 87.0.4280.88,2560x1080,2543x1080,,Meta-Task,29,Meta-first,survey-likert,1407,1988773,1514,"{""Q0"":3}",,1,,simpleperceptual,132,confidencerating,0.5,3.1,0.75,102.6944444,1,,,22
294,1.60743E+12,08/12/2020 12:03,1.60743E+12,0,08/12/2020 12:03,27169,8,task-pf6t,,8418925,BLIND,2563035,,complete,lxlkbl,,computer,Desktop or Laptop,Windows 10,Chrome 87.0.4280.88,2560x1080,2543x1080,,Meta-Task,29,Meta-first,doublestim,1414,1993086,370,,87,1,,simpleperceptual,133,responsePerceptual,,3.1,,102.6944444,1,,,22
